Subject,Round,Phase,afterbreak,Schema,Schema_RT,Schema_OB,Schema_AS,Cho_1,Cho_2,Cho_3,Cho_4,RT_1,RT_2,RT_3,RT_4,OB_1,OB_2,OB_3,OB_4,AS_1,AS_2,AS_3,AS_4,schema_payoff,AC,performance,payoff,breakR,type,dwellmean_1,dwellmean_2,dwellmean_3,dwellmean_4
1,1,1,0,5,7.075999999999994,18,39,38,48,86,37,7.136999999999994,2.8669999999999978,0.6099999999999999,1.4029999999999991,19,7,5,6,40,11,5,8,5,0.5,33,4.5,7,L,0.178425,0.2606363636363636,0.122,0.175375
1,1,2,0,3,10.430999999999992,16,49,27,49,53,6,10.613999999999992,4.330999999999997,0.8539999999999996,0.488,18,12,5,3,51,22,5,3,5,0,19,4.75,7,L,0.20811764705882352,0.19686363636363635,0.1708,0.16266666666666665
1,2,3,0,5,12.19999999999999,19,65,44,77,98,52,26.16899999999998,0.9759999999999995,0.8539999999999996,0.6099999999999999,20,4,4,6,119,4,4,6,5,0,14,3.5,7,L,0.2199075630252101,0.244,0.21349999999999997,0.10166666666666667
1,2,4,0,8,9.881999999999993,18,49,109,120,110,119,10.064999999999992,1.1589999999999994,1.2199999999999993,1.585999999999999,20,5,7,7,51,5,9,8,2,1,24,2,7,L,0.19735294117647056,0.23179999999999998,0.13555555555555554,0.19824999999999998
1,3,5,0,6,8.905999999999993,18,44,6,2,9,11,11.345999999999991,2.622999999999998,0.244,2.744999999999998,20,9,2,9,52,14,2,11,6,1,72,6,7,L,0.21819230769230769,0.18735714285714286,0.122,0.24954545454545454
1,3,6,0,9,10.247999999999992,12,45,70,69,108,94,11.223999999999991,6.953999999999994,0.9759999999999995,1.3419999999999992,20,15,3,4,56,27,3,5,4,0,13,3.25,7,L,0.2004285714285714,0.25755555555555554,0.3253333333333333,0.26839999999999997
1,4,7,0,6,12.19999999999999,19,66,7,9,8,91,13.11499999999999,0.122,4.513999999999997,0.6099999999999999,20,1,10,3,69,1,17,3,6,0.5,39,5.25,7,L,0.19007246376811593,0.122,0.26552941176470585,0.20333333333333334
1,4,8,0,7,9.088999999999993,14,44,24,19,29,23,11.528999999999991,0.9149999999999996,0.8539999999999996,2.3179999999999983,20,5,4,10,55,5,6,10,6,0.5,41,5.75,7,L,0.20961818181818181,0.183,0.14233333333333334,0.2318
1,5,9,0,5,8.539999999999994,16,48,43,41,47,46,8.661999999999994,2.500999999999998,0.183,2.622999999999998,18,10,1,7,50,13,1,9,5,1,60,5,7,L,0.17323999999999998,0.19238461538461538,0.183,0.2914444444444444
1,5,10,0,2,10.247999999999992,18,52,59,94,85,55,11.589999999999991,4.452999999999997,6.099999999999995,1.1589999999999994,20,9,16,7,60,15,32,7,4,0,14,3.5,7,L,0.19316666666666665,0.2968666666666666,0.190625,0.16557142857142856
1,6,11,0,1,7.990999999999993,18,45,83,80,76,14,20.495999999999984,2.0739999999999985,9.698999999999993,0.427,20,7,17,3,94,7,43,3,3,0.5,24,3.75,7,L,0.21804255319148935,0.29628571428571426,0.22555813953488368,0.14233333333333334
1,6,12,0,6,3.2329999999999974,10,20,2,33,95,11,4.6969999999999965,3.720999999999997,0.244,0.061,17,10,2,1,28,15,2,1,6,0,20,5,7,L,0.16774999999999998,0.24806666666666666,0.122,0.061
1,7,13,1,3,8.905999999999993,16,45,109,30,6,3,11.223999999999991,0.7319999999999998,2.1349999999999985,2.3789999999999982,20,3,9,4,54,3,13,4,5,0,19,4.75,7,L,0.20785185185185184,0.244,0.1642307692307692,0.5947499999999998
1,7,14,1,1,12.26099999999999,17,54,15,43,84,40,20.007999999999985,0.061,1.0979999999999994,3.2939999999999974,20,1,2,9,91,1,2,11,3,0,19,4.75,7,L,0.21986813186813187,0.061,0.5489999999999998,0.2994545454545455
1,8,15,1,12,11.162999999999991,17,50,37,15,96,114,19.580999999999985,2.500999999999998,0.5489999999999999,2.9889999999999977,20,10,4,8,83,12,4,12,5,0,16,4,7,L,0.2359156626506024,0.20841666666666664,0.13724999999999998,0.2490833333333333
1,8,16,1,7,19.153999999999986,14,85,60,2,5,6,22.203999999999983,0.488,1.2809999999999993,0.8539999999999996,20,1,3,3,98,1,4,3,6,0.5,40,5.5,7,L,0.22657142857142856,0.488,0.3202499999999999,0.2846666666666667
1,9,17,1,8,7.9299999999999935,19,45,105,19,107,66,9.393999999999993,3.598999999999997,0.7929999999999997,5.550999999999996,20,9,3,16,52,16,3,29,2,0,14,3.5,7,L,0.18065384615384614,0.22493749999999996,0.2643333333333333,0.19141379310344825
1,9,18,1,7,7.441999999999994,16,37,8,1,54,2,9.576999999999993,3.0499999999999976,0.9759999999999995,0.9759999999999995,20,11,5,5,50,12,6,5,6,0.5,40,5.5,7,L,0.19154,0.25416666666666665,0.16266666666666665,0.19519999999999998
1,10,19,1,13,15.249999999999988,17,63,120,109,89,110,15.859999999999987,2.0129999999999986,1.0369999999999995,1.1589999999999994,20,6,6,4,66,8,6,6,2,0.5,15,2.25,7,L,0.24030303030303027,0.251625,0.17283333333333334,0.19316666666666665
1,10,20,1,11,11.345999999999991,17,66,37,68,71,41,12.74899999999999,2.9889999999999977,1.2199999999999993,0.366,20,10,4,2,72,13,5,2,4,0,18,4.5,7,L,0.17706944444444442,0.22992307692307692,0.244,0.183
1,11,21,1,14,8.905999999999993,15,43,87,38,91,43,11.71199999999999,1.585999999999999,0.061,0.7319999999999998,20,6,1,1,55,7,1,1,3,0,16,4,7,L,0.21294545454545452,0.22657142857142856,0.061,0.7319999999999998
1,11,22,1,13,15.249999999999988,19,71,73,115,63,70,18.970999999999986,5.123999999999996,4.025999999999997,2.805999999999998,20,14,10,9,89,33,13,12,2,0,13,3.25,7,L,0.2131573033707865,0.15527272727272728,0.30969230769230766,0.2338333333333333
1,12,23,1,12,13.724999999999989,17,63,48,72,14,40,15.310999999999988,2.2569999999999983,0.305,0.488,20,9,2,2,71,12,2,2,5,0,20,5,7,L,0.21564788732394363,0.18808333333333332,0.1525,0.244
1,12,24,1,7,11.589999999999991,19,54,4,5,7,104,17.262999999999987,0.061,4.391999999999997,5.550999999999996,20,1,10,13,75,1,17,23,6,0.5,38,5,7,L,0.2301733333333333,0.061,0.25835294117647056,0.24134782608695649
1,13,25,1,15,13.11499999999999,20,69,24,72,14,22,14.151999999999989,1.9519999999999986,2.0739999999999985,0.244,20,4,8,3,75,5,9,3,6,0.5,40,5.5,7,L,0.18869333333333332,0.3903999999999999,0.23044444444444442,0.08133333333333333
1,13,26,1,2,20.556999999999984,17,96,86,44,43,87,23.78999999999998,0.9759999999999995,2.3179999999999983,0.183,20,6,6,1,109,6,11,1,4,0,16,4,7,L,0.21825688073394495,0.16266666666666665,0.21072727272727274,0.183
1,14,27,1,8,13.17599999999999,20,67,99,97,56,46,14.151999999999989,0.5489999999999999,1.585999999999999,4.513999999999997,20,2,8,11,73,2,9,19,2,0,13,3.25,7,L,0.19386301369863013,0.27449999999999997,0.17622222222222222,0.23757894736842103
1,14,28,1,13,8.722999999999994,18,45,111,118,69,63,12.32199999999999,0.7319999999999998,0.488,2.0129999999999986,20,3,3,10,58,3,4,14,2,0,12,3,7,L,0.21244827586206896,0.244,0.122,0.1437857142857143
1,15,29,1,7,11.77299999999999,15,56,8,3,7,57,13.11499999999999,0.6709999999999998,0.305,1.524999999999999,20,4,2,7,61,4,2,7,6,0.5,40,5.5,7,L,0.215,0.16775,0.1525,0.21785714285714286
1,15,30,1,11,13.846999999999989,18,55,63,72,48,24,15.920999999999987,0.5489999999999999,0.9149999999999996,0.7929999999999997,20,3,5,3,65,3,5,3,4,0,19,4.75,7,L,0.24493846153846152,0.183,0.183,0.2643333333333333
1,16,31,1,3,12.38299999999999,19,66,25,15,34,92,13.663999999999989,1.8909999999999987,2.805999999999998,1.2809999999999993,20,4,12,4,72,5,13,5,5,0,19,4.75,7,L,0.18977777777777777,0.3782,0.21584615384615383,0.2562
1,16,32,1,7,9.576999999999993,16,47,1,102,8,106,9.759999999999993,1.1589999999999994,0.122,6.343999999999995,18,4,1,14,49,5,1,28,6,0,16,4,7,L,0.19918367346938776,0.23179999999999995,0.122,0.22657142857142853
1,17,33,1,12,11.406999999999991,16,53,44,47,120,55,12.62699999999999,0.305,4.940999999999996,0.183,20,2,10,1,59,2,19,1,5,0,16,4,7,L,0.21401694915254235,0.1525,0.2600526315789473,0.183
1,17,34,1,11,9.820999999999993,17,55,69,107,71,8,11.406999999999991,2.0129999999999986,1.646999999999999,2.3179999999999983,20,8,10,10,65,10,11,11,4,0,16,4,7,L,0.1754923076923077,0.20129999999999998,0.1497272727272727,0.2107272727272727
1,18,35,1,11,6.526999999999995,13,32,29,68,115,67,16.713999999999988,1.3419999999999992,1.2199999999999993,1.8299999999999987,20,4,7,7,65,5,7,9,4,0,15,3.75,7,L,0.2571384615384615,0.26839999999999997,0.1742857142857143,0.20333333333333334
1,18,36,1,14,11.89499999999999,19,62,95,21,17,14,12.26099999999999,2.9279999999999977,6.099999999999995,2.500999999999998,20,11,14,6,64,13,24,6,3,0.5,39,5.25,7,L,0.191578125,0.2252307692307692,0.25416666666666665,0.4168333333333332
1,19,37,1,14,12.62699999999999,18,65,96,93,44,88,14.700999999999988,0.5489999999999999,1.8299999999999987,1.0979999999999994,20,1,6,5,74,1,8,5,3,0.5,23,3.5,7,L,0.19866216216216215,0.5489999999999999,0.22875,0.2196
1,19,38,1,3,11.040999999999991,17,57,25,12,73,101,12.01699999999999,7.380999999999994,12.50499999999999,0.061,20,16,18,1,60,35,50,1,5,0,16,4,7,L,0.2002833333333333,0.21088571428571426,0.25009999999999993,0.061
2,1,1,0,1,10.369999999999992,19,56,73,76,75,10,13.05399999999999,1.7689999999999988,0.427,0.6099999999999999,20,6,3,3,64,7,3,4,3,0.5,24,3.75,6,L,0.20396874999999998,0.2527142857142857,0.14233333333333334,0.1525
2,1,2,0,9,10.857999999999992,19,54,69,19,67,71,11.223999999999991,1.0979999999999994,2.9889999999999977,0.305,20,2,10,2,56,2,11,2,4,0.5,30,4.5,6,L,0.20042857142857143,0.5489999999999998,0.2717272727272727,0.1525
2,2,3,0,5,12.62699999999999,18,72,52,42,37,16,13.907999999999989,2.0739999999999985,0.122,1.646999999999999,20,6,1,5,76,8,1,6,5,0,20,5,6,L,0.18299999999999997,0.25925,0.122,0.27449999999999997
2,2,4,0,9,9.149999999999993,19,48,61,95,64,97,12.50499999999999,2.744999999999998,1.0369999999999995,2.2569999999999983,20,9,5,5,62,10,6,6,4,0,13,3.25,6,L,0.20169354838709677,0.2744999999999999,0.17283333333333334,0.3761666666666666
2,3,5,0,5,13.11499999999999,20,60,38,42,19,22,15.798999999999987,1.0979999999999994,0.244,4.086999999999997,20,3,2,13,72,3,2,22,5,0,22,5.5,6,L,0.21943055555555555,0.3659999999999999,0.122,0.18577272727272726
2,3,6,0,6,10.186999999999992,17,48,2,89,9,12,11.467999999999991,3.0499999999999976,0.244,1.463999999999999,20,11,1,7,54,16,1,7,6,0.5,39,5.25,6,L,0.21237037037037038,0.190625,0.244,0.20914285714285713
2,4,7,0,3,12.13899999999999,16,61,28,11,5,101,13.41999999999999,1.646999999999999,2.2569999999999983,0.5489999999999999,20,10,8,5,67,11,13,5,5,0,19,4.75,6,L,0.20029850746268654,0.1497272727272727,0.17361538461538462,0.1098
2,4,8,0,7,9.698999999999993,18,48,20,15,14,37,10.491999999999992,0.7319999999999998,11.223999999999991,0.061,20,3,15,1,54,3,50,1,6,0.5,41,5.75,6,L,0.19429629629629627,0.244,0.22447999999999999,0.061
2,5,9,0,3,12.93199999999999,19,62,25,27,33,2,13.846999999999989,2.439999999999998,0.183,4.574999999999997,20,11,1,10,67,11,1,20,5,0.5,36,5.25,6,L,0.20667164179104477,0.2218181818181818,0.183,0.22874999999999993
2,5,10,0,5,7.563999999999994,17,36,43,41,102,44,11.467999999999991,0.6709999999999998,0.244,1.646999999999999,20,3,1,5,52,3,1,6,5,0.5,32,4.25,6,L,0.22053846153846152,0.22366666666666665,0.244,0.2744999999999999
2,6,11,1,15,10.064999999999992,15,54,13,20,52,78,12.74899999999999,0.061,1.2809999999999993,7.990999999999993,20,1,3,14,63,1,4,33,6,0,19,4.75,6,L,0.20236507936507936,0.061,0.32025,0.24215151515151515
2,6,12,1,8,15.432999999999987,18,72,106,65,42,108,16.713999999999988,5.062999999999996,2.9889999999999977,0.061,20,16,10,1,81,25,16,1,2,0,13,3.25,6,L,0.20634567901234566,0.20251999999999998,0.18681249999999996,0.061
2,7,13,1,8,14.151999999999989,17,81,103,60,108,18,14.395999999999988,13.41999999999999,2.439999999999998,2.1959999999999984,19,18,9,8,83,52,13,8,2,0,14,3.5,6,L,0.17344578313253012,0.25807692307692304,0.18769230769230769,0.27449999999999997
2,7,14,1,7,9.332999999999993,18,45,1,114,12,25,12.87099999999999,2.8669999999999978,1.4029999999999991,17.933999999999987,20,11,2,15,54,16,2,72,6,0,19,4.75,6,L,0.23835185185185181,0.1791875,0.7014999999999996,0.24908333333333332
2,8,15,1,12,11.77299999999999,19,60,47,40,20,13,12.99299999999999,0.7929999999999997,2.500999999999998,1.524999999999999,20,5,6,5,65,5,8,8,5,0,22,5.5,6,L,0.1998923076923077,0.1586,0.312625,0.190625
2,8,16,1,11,8.783999999999994,17,45,72,101,97,1,10.308999999999992,7.136999999999994,0.122,0.305,20,16,1,1,55,30,1,1,4,0,14,3.5,6,L,0.18743636363636362,0.23789999999999997,0.122,0.305
2,9,17,1,13,12.19999999999999,18,65,48,47,83,75,15.554999999999987,7.441999999999994,6.099999999999995,0.488,20,14,14,3,82,28,28,3,2,0,16,4,6,L,0.1896951219512195,0.2657857142857143,0.21785714285714286,0.16266666666666665
2,9,18,1,14,11.406999999999991,18,58,88,85,20,18,12.26099999999999,0.9149999999999996,2.3789999999999982,0.305,20,3,8,1,62,4,10,1,3,0,18,4.5,6,L,0.197758064516129,0.22874999999999995,0.23789999999999997,0.305
2,10,19,1,3,6.770999999999995,15,30,26,29,120,111,14.090999999999989,0.427,1.0369999999999995,2.1959999999999984,20,3,3,3,56,3,3,3,5,0,14,3.5,6,L,0.25162499999999993,0.14233333333333334,0.3456666666666666,0.7319999999999995
2,10,20,1,12,6.343999999999995,17,35,99,54,94,101,13.48099999999999,2.0129999999999986,1.9519999999999986,1.2199999999999993,20,7,10,6,65,8,12,6,5,0,11,2.75,6,L,0.2074,0.251625,0.16266666666666665,0.20333333333333334
2,11,21,1,7,6.648999999999995,16,33,2,5,1,50,8.722999999999994,0.061,2.683999999999998,1.0369999999999995,20,1,11,5,42,1,13,6,6,0.5,40,5.5,6,L,0.20769047619047618,0.061,0.20646153846153845,0.17283333333333334
2,11,22,1,14,9.637999999999993,20,53,96,93,117,48,10.613999999999992,1.2199999999999993,1.1589999999999994,1.0979999999999994,20,5,5,3,59,5,6,4,3,0,13,3.25,6,L,0.17989830508474575,0.244,0.19316666666666665,0.27449999999999997
2,12,23,1,7,9.698999999999993,18,55,4,30,116,9,14.70099999999999,2.1959999999999984,0.9149999999999996,0.183,20,7,1,1,77,10,1,1,6,0,19,4.75,6,L,0.1909220779220779,0.2196,0.9149999999999996,0.183
2,12,24,1,2,17.872999999999987,17,87,57,84,54,16,19.824999999999985,1.0979999999999994,1.2199999999999993,0.488,20,4,9,3,100,4,9,3,4,0,17,4.25,6,L,0.19824999999999998,0.27449999999999997,0.13555555555555554,0.16266666666666665
2,13,25,1,7,11.83399999999999,17,71,67,45,7,43,13.54199999999999,5.611999999999996,0.9149999999999996,0.427,20,12,4,2,76,25,4,3,6,0,20,5,6,L,0.17818421052631578,0.22447999999999999,0.22875,0.14233333333333334
2,13,26,1,14,9.515999999999993,18,44,94,24,51,95,12.56599999999999,3.1719999999999975,0.7929999999999997,0.427,20,11,4,2,59,12,4,2,3,0,16,4,6,L,0.2129830508474576,0.2643333333333333,0.19824999999999998,0.2135
2,14,27,1,13,7.197999999999994,16,35,44,118,65,62,14.517999999999988,6.160999999999995,4.635999999999997,5.428999999999996,20,16,14,13,60,24,20,24,2,0,15,3.75,6,L,0.24196666666666666,0.2567083333333333,0.23179999999999998,0.2262083333333333
2,14,28,1,7,8.966999999999993,18,48,2,8,11,104,9.515999999999993,1.0979999999999994,2.8669999999999978,2.500999999999998,19,5,6,12,49,5,7,14,6,0.5,38,5,6,L,0.19420408163265304,0.2196,0.40957142857142853,0.1786428571428571
2,15,29,1,7,8.295999999999994,18,45,2,7,12,30,9.454999999999993,4.025999999999997,1.0979999999999994,2.0739999999999985,20,11,8,9,51,19,8,10,6,0.5,41,5.75,6,L,0.1853921568627451,0.21189473684210525,0.13724999999999998,0.2074
2,15,30,1,15,10.186999999999992,16,53,18,89,53,23,12.87099999999999,0.9149999999999996,0.488,0.7319999999999998,20,3,2,3,63,3,2,4,6,0,19,4.75,6,L,0.20430158730158726,0.30499999999999994,0.244,0.183
2,16,31,1,15,10.613999999999992,17,59,18,23,14,15,10.857999999999992,0.6099999999999999,0.6099999999999999,2.0129999999999986,19,2,1,9,61,2,1,11,6,1,72,6,6,L,0.178,0.30499999999999994,0.6099999999999999,0.18299999999999997
2,16,32,1,7,7.319999999999994,15,49,9,1,115,11,7.929999999999994,6.099999999999995,0.8539999999999996,0.9759999999999995,19,13,3,5,53,23,3,5,6,0.5,38,5,6,L,0.14962264150943397,0.2652173913043478,0.2846666666666667,0.19519999999999998
2,17,33,1,1,9.149999999999993,16,46,73,82,81,99,10.918999999999992,2.1349999999999985,2.561999999999998,4.6969999999999965,20,8,8,10,52,11,8,18,3,0.5,20,2.75,6,L,0.20998076923076922,0.1940909090909091,0.3202499999999999,0.2609444444444444
2,17,34,1,7,4.635999999999997,12,21,8,4,5,7,5.123999999999997,1.585999999999999,0.9759999999999995,1.7079999999999989,15,5,4,9,24,5,4,11,6,1,72,6,6,L,0.2135,0.3171999999999999,0.244,0.15527272727272726
2,18,35,1,2,11.650999999999991,17,48,58,50,77,102,12.56599999999999,3.0499999999999976,3.781999999999997,2.500999999999998,20,10,11,9,53,16,15,12,4,0,13,3.25,6,L,0.23709433962264148,0.190625,0.25213333333333326,0.20841666666666664
2,18,36,1,15,11.162999999999991,17,52,19,24,118,114,11.95599999999999,0.8539999999999996,12.80999999999999,3.0499999999999976,20,7,17,8,55,7,50,11,6,0,16,4,6,L,0.21738181818181818,0.122,0.2562,0.2772727272727272
2,19,37,1,13,14.517999999999988,16,78,111,39,47,113,15.371999999999987,7.197999999999994,45.688999999999965,125.17200000000702,20,15,18,15,85,29,194,529,2,0,14,3.5,6,L,0.18084705882352942,0.24820689655172412,0.23551030927835048,0.23662003780718335
2,19,38,1,1,11.406999999999991,19,51,80,78,52,32,11.83399999999999,2.744999999999998,0.488,0.488,20,9,3,4,53,10,4,4,3,0,15,3.75,6,L,0.2232830188679245,0.2744999999999999,0.122,0.122
3,1,1,0,8,9.027999999999993,18,51,117,109,119,81,10.003999999999992,0.305,0.9149999999999996,4.7579999999999965,20,1,6,13,58,1,7,20,2,0.5,15,2.25,6,L,0.17248275862068965,0.305,0.1307142857142857,0.2379
3,1,2,0,5,9.210999999999993,17,46,48,99,108,49,10.247999999999992,1.1589999999999994,3.4159999999999973,1.1589999999999994,20,4,13,5,51,4,18,6,5,0,13,3.25,6,L,0.20094117647058823,0.28975,0.18977777777777777,0.19316666666666665
3,2,3,0,9,9.698999999999993,18,52,64,72,2,25,10.430999999999992,2.1959999999999984,8.173999999999994,2.561999999999998,20,12,14,5,57,14,40,9,4,0,19,4.75,6,L,0.183,0.15685714285714286,0.20434999999999998,0.2846666666666666
3,2,4,0,5,11.040999999999991,18,51,46,54,56,103,11.89499999999999,3.0499999999999976,0.6709999999999998,1.7079999999999989,20,11,4,5,53,14,5,5,5,0,15,3.75,6,L,0.2244339622641509,0.21785714285714286,0.13419999999999999,0.34159999999999996
3,3,5,0,10,12.32199999999999,17,60,85,100,12,5,12.50499999999999,3.2329999999999974,0.5489999999999999,1.0369999999999995,18,13,2,3,61,15,2,3,3,0,17,4.25,6,L,0.205,0.21553333333333333,0.27449999999999997,0.3456666666666666
3,3,6,0,1,15.737999999999987,17,80,84,82,18,66,16.774999999999988,2.8669999999999978,3.4159999999999973,4.025999999999997,20,7,11,10,86,12,18,19,3,0,16,4,6,L,0.1950581395348837,0.2389166666666666,0.18977777777777777,0.21189473684210525
3,4,7,0,7,11.77299999999999,18,56,23,14,26,18,12.01699999999999,9.210999999999993,0.061,1.9519999999999986,19,17,1,6,57,37,1,7,6,0.5,41,5.75,6,L,0.21082456140350878,0.2489459459459459,0.061,0.27885714285714286
3,4,8,0,5,9.515999999999993,17,52,46,39,1,63,9.820999999999993,2.0129999999999986,2.9279999999999977,2.744999999999998,20,8,11,10,55,9,15,17,5,0,20,5,6,L,0.17856363636363634,0.22366666666666665,0.19519999999999996,0.16147058823529412
3,5,9,0,1,10.918999999999992,18,60,74,83,49,73,11.101999999999991,2.0739999999999985,0.366,1.8909999999999987,20,6,5,6,62,7,5,8,3,0.5,22,3.25,6,L,0.17906451612903226,0.2962857142857142,0.0732,0.23637499999999995
3,5,10,0,9,18.055999999999987,16,80,65,17,33,29,21.044999999999984,2.8669999999999978,0.6709999999999998,5.123999999999996,20,10,5,12,94,14,6,21,4,0,20,5,6,L,0.22388297872340424,0.20478571428571427,0.11183333333333333,0.24399999999999997
3,6,11,1,15,10.125999999999992,19,50,15,42,18,86,10.369999999999992,3.4159999999999973,2.439999999999998,1.524999999999999,20,5,5,5,54,5,6,6,6,0,20,5,6,L,0.19203703703703703,0.6831999999999998,0.4066666666666666,0.25416666666666665
3,6,12,1,11,9.881999999999993,20,55,109,3,5,114,13.35899999999999,3.2939999999999974,5.611999999999996,5.611999999999996,20,10,11,14,66,23,18,25,4,0,16,4,6,L,0.20240909090909087,0.14321739130434782,0.31177777777777776,0.22447999999999999
3,7,13,1,3,9.698999999999993,17,50,25,35,32,14,12.99299999999999,2.439999999999998,6.038999999999995,1.8909999999999987,20,8,14,9,58,10,25,11,5,0.5,36,5.25,6,L,0.2240172413793103,0.244,0.24155999999999994,0.1719090909090909
3,7,14,1,7,7.624999999999994,19,46,7,8,118,44,9.027999999999993,4.208999999999997,0.122,0.8539999999999996,20,11,1,5,49,15,1,5,6,0,19,4.75,6,L,0.18424489795918364,0.2806,0.122,0.1708
3,8,15,1,14,10.857999999999992,17,52,89,86,87,46,14.578999999999988,0.5489999999999999,4.269999999999997,0.183,20,2,11,2,64,2,18,2,3,0.5,23,3.5,6,L,0.22779687499999998,0.27449999999999997,0.2372222222222222,0.0915
3,8,16,1,3,8.112999999999994,13,35,30,78,27,15,9.454999999999993,0.6099999999999999,4.574999999999997,0.9149999999999996,17,3,12,5,39,4,27,7,5,0,19,4.75,6,L,0.2424358974358974,0.1525,0.16944444444444443,0.1307142857142857
3,9,17,1,2,10.125999999999992,17,53,52,50,47,90,22.447999999999983,5.550999999999996,0.122,0.061,20,13,1,1,111,24,1,1,4,0,16,4,6,L,0.20223423423423423,0.23129166666666665,0.122,0.061
3,9,18,1,11,5.916999999999995,18,37,64,116,32,111,8.722999999999994,7.685999999999994,0.6709999999999998,0.8539999999999996,20,15,3,3,49,30,3,3,4,0,13,3.25,6,L,0.17802040816326528,0.2562,0.22366666666666665,0.2846666666666667
3,10,19,1,14,15.005999999999988,17,80,86,92,110,53,15.493999999999987,0.7929999999999997,1.4029999999999991,1.8909999999999987,19,4,3,8,82,4,3,11,3,0,12,3,6,L,0.18895121951219512,0.19824999999999998,0.4676666666666666,0.1719090909090909
3,10,20,1,3,9.454999999999993,19,45,36,28,32,73,9.637999999999993,5.855999999999995,0.6099999999999999,7.258999999999994,20,15,2,14,47,25,2,35,5,0.5,33,4.5,6,L,0.20506382978723403,0.23424,0.30499999999999994,0.20739999999999997
3,11,21,1,2,12.32199999999999,17,54,51,54,16,55,13.29799999999999,0.122,0.9759999999999995,2.683999999999998,20,2,7,10,58,2,10,15,4,0.5,30,4.5,6,L,0.2292758620689655,0.061,0.09759999999999999,0.1789333333333333
3,11,22,1,7,7.319999999999994,14,44,3,2,61,11,7.624999999999994,1.524999999999999,1.585999999999999,6.404999999999995,17,6,2,15,47,8,2,30,6,0.5,40,5.5,6,L,0.1622340425531915,0.190625,0.7929999999999996,0.21349999999999997
3,12,23,1,11,19.458999999999985,17,96,61,89,109,116,19.702999999999985,5.184999999999996,1.585999999999999,0.366,19,10,4,2,98,19,5,2,4,0,11,2.75,6,L,0.20105102040816325,0.27289473684210525,0.3172,0.183
3,12,24,1,8,6.587999999999995,15,31,107,98,1,105,7.136999999999995,1.0369999999999995,2.805999999999998,0.061,18,7,8,1,34,7,11,1,2,0.5,18,3,6,L,0.20991176470588235,0.14814285714285713,0.2550909090909091,0.061
3,13,25,1,15,10.552999999999992,20,53,19,66,20,35,11.71199999999999,5.123999999999996,2.744999999999998,7.8689999999999936,20,11,11,14,61,17,16,26,6,0,21,5.25,6,L,0.19199999999999998,0.30141176470588227,0.1715625,0.3026538461538461
3,13,26,1,12,7.075999999999994,14,41,1,60,118,39,25.55899999999998,0.061,0.366,0.122,20,1,1,2,103,1,1,2,5,0,17,4.25,6,L,0.24814563106796111,0.061,0.366,0.061
3,14,27,1,3,12.32199999999999,18,56,31,8,5,56,17.933999999999987,3.659999999999997,67.9540000000004,0.183,20,12,18,2,80,18,261,2,5,0,21,5.25,6,L,0.22417499999999999,0.20333333333333334,0.260360153256705,0.0915
3,14,28,1,15,5.489999999999996,16,33,13,14,21,87,7.929999999999994,1.463999999999999,1.646999999999999,0.305,20,8,7,2,45,8,8,2,6,0.5,39,5.25,6,L,0.17622222222222222,0.183,0.205875,0.1525
3,15,29,1,7,9.820999999999993,19,56,12,1,2,33,13.17599999999999,0.061,1.7689999999999988,0.244,20,1,7,1,74,1,10,1,6,0.5,41,5.75,6,L,0.17805405405405406,0.061,0.1769,0.244
3,15,30,1,15,10.064999999999992,18,55,17,21,16,15,10.735999999999992,0.244,2.9889999999999977,8.234999999999994,20,2,9,14,63,2,12,35,6,1,72,6,6,L,0.1704126984126984,0.122,0.2490833333333333,0.23528571428571426
3,16,31,1,8,11.162999999999991,19,58,36,89,13,104,26.41299999999998,0.061,7.563999999999994,0.061,20,1,18,1,129,1,36,1,2,0,16,4,6,L,0.20475193798449612,0.061,0.21011111111111108,0.061
3,16,32,1,13,5.062999999999996,15,35,115,2,116,5,31.353999999999974,0.305,3.1109999999999975,3.720999999999997,20,3,11,7,133,3,18,8,2,0,16,4,6,L,0.2357443609022556,0.10166666666666667,0.1728333333333333,0.4651249999999999
3,17,33,1,1,10.064999999999992,15,53,80,77,78,73,17.933999999999987,1.9519999999999986,1.2199999999999993,12.74899999999999,20,8,5,16,84,8,5,54,3,1,36,3,6,L,0.21349999999999997,0.244,0.244,0.23609259259259255
3,17,34,1,12,8.722999999999994,16,51,43,11,49,60,14.63999999999999,2.805999999999998,1.0979999999999994,5.611999999999996,20,9,6,13,73,12,7,23,5,0,19,4.75,6,L,0.20054794520547942,0.23383333333333334,0.15685714285714286,0.24399999999999997
3,18,35,1,2,17.933999999999987,16,89,55,53,59,41,19.336999999999986,2.8669999999999978,0.6709999999999998,0.7319999999999998,20,10,4,3,96,13,5,4,4,0.5,29,4.25,6,L,0.2014270833333333,0.2205384615384615,0.13419999999999999,0.183
3,18,36,1,11,8.173999999999994,17,41,61,70,87,96,9.515999999999993,0.8539999999999996,4.147999999999997,0.244,20,6,12,1,52,6,17,1,4,0,14,3.5,6,L,0.183,0.14233333333333334,0.244,0.244
4,1,1,0,1,8.234999999999994,13,35,76,16,45,83,8.661999999999994,4.391999999999997,5.550999999999996,0.061,15,11,15,1,37,17,30,1,3,0,17,4.25,6,L,0.2341081081081081,0.25835294117647056,0.18503333333333333,0.061
4,1,2,0,8,8.966999999999993,18,44,114,117,5,1,9.271999999999993,4.513999999999997,0.488,3.720999999999997,20,13,3,11,46,20,4,17,2,0,16,4,6,L,0.20156521739130434,0.22569999999999998,0.122,0.21888235294117644
4,2,3,0,7,14.883999999999988,17,75,22,77,19,20,15.493999999999987,3.1719999999999975,1.7079999999999989,9.454999999999993,20,8,5,16,80,13,5,44,6,0.5,39,5.25,6,L,0.19367499999999999,0.24399999999999997,0.34159999999999996,0.21488636363636363
4,2,4,0,9,14.944999999999988,19,67,62,6,63,107,15.127999999999988,2.1959999999999984,13.05399999999999,2.0129999999999986,20,7,18,11,70,12,54,14,4,0,16,4,6,L,0.2161142857142857,0.183,0.2417407407407407,0.1437857142857143
4,3,5,0,6,5.489999999999996,13,33,7,5,118,115,6.221999999999996,1.524999999999999,1.4029999999999991,2.9279999999999977,18,7,3,8,38,7,4,10,6,0,16,4,6,L,0.16373684210526315,0.21785714285714286,0.35075,0.29279999999999995
4,3,6,0,4,11.040999999999991,19,57,54,33,104,96,15.737999999999989,3.4159999999999973,0.366,0.9759999999999995,20,9,2,4,90,12,3,6,2,0,14,3.5,6,L,0.17486666666666664,0.2846666666666666,0.122,0.16266666666666665
4,4,7,0,5,7.8689999999999936,15,36,45,48,16,47,10.125999999999992,3.1719999999999975,2.0739999999999985,0.183,20,12,5,3,44,15,8,3,5,0.5,36,5.25,6,L,0.2301363636363636,0.21146666666666664,0.25925,0.061
4,4,8,0,1,7.807999999999994,15,42,82,75,57,84,7.9299999999999935,1.8299999999999987,2.0739999999999985,3.1109999999999975,16,5,9,11,43,8,11,18,3,0.5,22,3.25,6,L,0.18441860465116278,0.22875,0.18854545454545454,0.17283333333333334
4,5,9,0,4,14.456999999999988,18,78,99,90,37,16,16.10399999999999,0.9759999999999995,4.635999999999997,0.183,20,8,11,2,86,9,22,2,2,0,16,4,6,L,0.18725581395348836,0.10844444444444444,0.2107272727272727,0.0915
4,5,10,0,1,10.552999999999992,20,62,80,50,77,3,13.05399999999999,0.183,1.4029999999999991,3.2329999999999974,20,2,5,5,72,3,5,12,3,0,16,4,6,L,0.18130555555555555,0.061,0.2806,0.26941666666666664
4,6,11,1,3,7.746999999999994,18,47,26,98,107,5,9.088999999999993,4.818999999999996,1.1589999999999994,2.0739999999999985,20,13,5,7,54,22,5,7,5,0,15,3.75,6,L,0.1683148148148148,0.21904545454545454,0.23179999999999998,0.2962857142857142
4,6,12,1,14,14.151999999999989,20,68,50,86,21,87,17.140999999999988,4.025999999999997,0.7319999999999998,0.427,20,11,4,2,81,15,4,2,3,0,16,4,6,L,0.21161728395061727,0.2683999999999999,0.183,0.2135
4,7,13,1,11,9.393999999999993,19,49,61,64,68,102,10.796999999999992,0.6099999999999999,3.537999999999997,0.8539999999999996,20,2,9,2,57,2,13,3,4,0.5,26,3.5,6,L,0.18942105263157893,0.305,0.27215384615384614,0.2846666666666667
4,7,14,1,3,9.149999999999993,19,50,29,32,7,26,9.759999999999993,0.5489999999999999,0.6099999999999999,0.7319999999999998,20,2,2,5,52,2,2,6,5,0.5,36,5.25,6,L,0.18769230769230769,0.27449999999999997,0.305,0.122
4,8,15,1,3,9.393999999999993,20,52,30,50,111,116,11.71199999999999,1.4029999999999991,3.9649999999999967,0.427,20,7,12,2,61,8,19,2,5,0,13,3.25,6,L,0.192,0.175375,0.20868421052631578,0.2135
4,8,16,1,7,10.125999999999992,15,62,71,4,5,105,13.724999999999989,0.488,0.305,1.646999999999999,20,1,2,6,75,1,2,9,6,0,18,4.5,6,L,0.183,0.488,0.1525,0.183
4,9,17,1,11,11.650999999999991,14,61,70,115,5,8,12.32199999999999,2.3789999999999982,3.3549999999999973,0.122,16,6,11,2,63,10,15,2,4,0,18,4.5,6,L,0.1955873015873016,0.23789999999999997,0.22366666666666662,0.061
4,9,18,1,1,10.308999999999992,17,68,77,82,47,84,10.613999999999992,3.9649999999999967,2.0739999999999985,0.427,18,10,9,3,69,16,11,3,3,0.5,23,3.5,6,L,0.15382608695652175,0.2478125,0.18854545454545452,0.14233333333333334
4,10,19,1,3,9.881999999999993,17,41,35,34,31,17,10.430999999999992,1.2199999999999993,4.147999999999997,4.452999999999997,20,6,11,9,44,6,19,13,5,0.5,36,5.25,6,L,0.2370681818181818,0.20333333333333334,0.2183157894736842,0.34253846153846146
4,10,20,1,12,5.7339999999999955,14,26,118,45,69,63,9.027999999999993,1.7079999999999989,2.2569999999999983,0.366,20,7,8,3,41,9,8,3,5,0,15,3.75,6,L,0.2201951219512195,0.18977777777777777,0.28212499999999996,0.122
4,11,21,1,3,10.186999999999992,14,51,32,110,112,33,15.737999999999989,4.147999999999997,3.0499999999999976,1.2809999999999993,20,14,12,4,76,19,16,4,5,0,14,3.5,6,L,0.20707894736842103,0.21831578947368419,0.19062499999999996,0.3202499999999999
4,11,22,1,8,11.345999999999991,19,44,98,67,24,89,14.761999999999988,3.720999999999997,1.463999999999999,0.8539999999999996,20,9,5,6,63,13,6,7,2,0,15,3.75,6,L,0.23431746031746029,0.2862307692307692,0.244,0.122
4,12,23,1,2,6.038999999999995,17,32,55,54,113,56,11.77299999999999,6.160999999999995,0.061,0.244,20,17,1,2,58,29,1,2,4,0.5,26,3.5,6,L,0.20298275862068965,0.21244827586206896,0.061,0.122
4,12,24,1,12,9.576999999999993,16,54,46,43,47,102,10.308999999999992,2.500999999999998,2.1959999999999984,1.0369999999999995,19,6,9,5,58,8,12,6,5,0.5,32,4.25,6,L,0.1777413793103448,0.312625,0.183,0.17283333333333334
4,13,25,1,8,9.271999999999993,19,50,102,69,15,100,10.064999999999992,5.977999999999995,2.744999999999998,0.488,20,15,6,2,54,28,10,2,2,0,14,3.5,6,L,0.18638888888888888,0.2135,0.2744999999999999,0.244
4,13,26,1,7,7.441999999999994,14,40,1,2,6,111,14.578999999999988,0.061,0.061,4.147999999999997,20,1,1,13,75,1,1,21,6,0.5,38,5,6,L,0.19438666666666665,0.061,0.061,0.19752380952380952
4,14,27,1,2,10.796999999999992,19,61,55,52,50,25,10.857999999999992,0.6709999999999998,0.427,6.587999999999995,20,3,4,13,62,3,4,23,4,0.5,29,4.25,6,L,0.17512903225806453,0.22366666666666665,0.10675,0.28643478260869565
4,14,28,1,8,7.014999999999994,14,30,16,69,104,77,19.580999999999985,0.5489999999999999,0.427,3.2329999999999974,20,3,3,9,90,3,3,14,2,0,15,3.75,6,L,0.21756666666666666,0.183,0.14233333333333334,0.2309285714285714
4,15,29,1,12,9.393999999999993,14,52,47,40,98,10,12.62699999999999,2.1959999999999984,5.7949999999999955,9.088999999999993,20,5,11,15,63,7,21,39,5,0,18,4.5,6,L,0.20042857142857143,0.31371428571428567,0.2759523809523809,0.23305128205128203
4,15,30,1,3,8.051999999999994,16,43,34,115,25,29,8.661999999999994,0.7319999999999998,5.123999999999996,0.061,19,1,8,1,46,2,21,1,5,0.5,32,4.25,6,L,0.18830434782608693,0.366,0.244,0.061
4,16,31,1,3,9.210999999999993,19,47,31,27,66,68,9.576999999999993,3.720999999999997,1.2809999999999993,2.9279999999999977,20,10,3,10,50,12,3,15,5,0,18,4.5,6,L,0.19154,0.31008333333333327,0.42699999999999994,0.19519999999999998
4,16,32,1,15,10.857999999999992,14,56,16,21,17,100,12.62699999999999,0.8539999999999996,0.366,4.6969999999999965,19,4,2,12,61,4,2,19,6,0.5,38,5,6,L,0.207,0.2135,0.183,0.24721052631578946
4,17,33,1,3,14.029999999999989,17,64,29,35,26,25,14.212999999999989,0.6709999999999998,2.3789999999999982,3.903999999999997,19,3,8,13,66,3,8,19,5,1,60,5,6,L,0.21534848484848482,0.22366666666666665,0.29737499999999994,0.2054736842105263
4,17,34,1,15,10.369999999999992,17,51,22,14,37,20,11.040999999999991,1.1589999999999994,6.709999999999995,11.223999999999991,20,3,13,16,56,3,31,42,6,0.5,41,5.75,6,L,0.19716071428571427,0.3863333333333333,0.21645161290322576,0.26723809523809516
4,18,35,1,7,9.515999999999993,19,46,7,6,5,10,10.491999999999992,1.0979999999999994,1.7689999999999988,0.7929999999999997,20,7,6,4,48,9,6,5,6,1,72,6,6,L,0.21858333333333332,0.122,0.29483333333333334,0.1586
4,18,36,1,3,17.079999999999988,17,84,30,25,84,18,17.140999999999988,1.0979999999999994,6.8319999999999945,0.061,18,6,13,1,85,8,30,1,5,0,19,4.75,6,L,0.20165882352941175,0.13724999999999998,0.22773333333333332,0.061
4,19,37,1,2,8.539999999999994,18,47,52,51,53,35,8.722999999999994,0.183,2.0739999999999985,2.9889999999999977,20,1,9,8,49,1,10,16,4,0.5,29,4.25,6,L,0.1780204081632653,0.183,0.2074,0.1868125
4,19,38,1,12,9.393999999999993,15,43,42,39,12,114,10.552999999999992,1.8299999999999987,4.513999999999997,0.8539999999999996,20,8,14,5,50,9,22,5,5,0,18,4.5,6,L,0.21106,0.2033333333333333,0.2051818181818182,0.1708
5,1,1,0,3,14.090999999999989,18,74,31,13,76,82,15.981999999999987,10.674999999999992,2.3179999999999983,0.061,20,17,7,1,84,46,9,1,5,0,17,4.25,6,L,0.19026190476190474,0.2320652173913043,0.25755555555555554,0.061
5,1,2,0,5,6.8319999999999945,13,39,42,47,38,71,8.356999999999994,2.561999999999998,1.463999999999999,0.7319999999999998,18,6,7,2,44,8,9,2,5,0.5,34,4.75,6,L,0.18993181818181817,0.3202499999999999,0.16266666666666665,0.36599999999999994
5,2,3,0,7,9.759999999999993,19,52,23,20,58,83,13.17599999999999,4.879999999999996,0.6099999999999999,0.5489999999999999,20,12,2,2,70,18,3,2,6,0,19,4.75,6,L,0.1882285714285714,0.2711111111111111,0.20333333333333334,0.27449999999999997
5,2,4,0,4,11.83399999999999,19,66,103,70,105,85,14.517999999999988,4.7579999999999965,0.5489999999999999,1.2199999999999993,20,14,5,4,78,21,5,4,2,0,11,2.75,6,L,0.1861282051282051,0.22657142857142853,0.1098,0.305
5,3,5,0,6,6.770999999999995,16,28,9,11,91,2,10.430999999999992,1.7079999999999989,1.0979999999999994,0.305,20,7,4,4,44,8,4,4,6,0.5,39,5.25,6,L,0.23706818181818182,0.2135,0.27449999999999997,0.07625
5,3,6,0,2,10.186999999999992,19,64,54,79,29,99,10.735999999999992,4.6969999999999965,1.8299999999999987,0.061,20,8,7,1,67,15,9,1,4,0,14,3.5,6,L,0.16023880597014925,0.31313333333333326,0.2033333333333333,0.061
5,4,7,0,3,15.127999999999988,20,76,32,17,15,16,16.04299999999999,2.2569999999999983,4.208999999999997,1.8909999999999987,20,6,11,7,80,7,17,8,5,0.5,41,5.75,6,L,0.20053749999999998,0.3224285714285714,0.24758823529411764,0.23637499999999997
5,4,8,0,6,11.040999999999991,19,58,8,58,90,3,11.406999999999991,2.3179999999999983,2.0739999999999985,0.366,20,7,6,1,59,9,9,1,6,0,19,4.75,6,L,0.19333898305084746,0.25755555555555554,0.23044444444444442,0.366
5,5,9,0,4,5.855999999999995,16,34,100,65,101,71,10.979999999999992,3.2329999999999974,0.366,2.744999999999998,20,11,4,11,54,15,4,14,2,0,12,3,6,L,0.2033333333333333,0.2155333333333333,0.0915,0.19607142857142856
5,5,10,0,1,12.44399999999999,20,60,83,84,50,81,14.639999999999988,0.366,0.6099999999999999,0.8539999999999996,20,2,2,3,71,2,2,3,3,0.5,22,3.25,6,L,0.20619718309859153,0.183,0.305,0.2846666666666667
5,6,11,1,13,12.68799999999999,18,59,21,70,36,109,18.848999999999986,2.9889999999999977,1.1589999999999994,0.061,20,12,6,1,88,17,7,1,2,0,17,4.25,6,L,0.2141931818181818,0.1758235294117647,0.16557142857142856,0.061
5,6,12,1,8,11.467999999999991,18,71,101,50,103,86,12.07799999999999,0.9149999999999996,1.646999999999999,1.8299999999999987,20,3,7,7,73,3,8,9,2,0,11,2.75,6,L,0.16545205479452055,0.305,0.205875,0.20333333333333334
5,7,13,1,7,10.796999999999992,18,59,7,4,6,88,11.345999999999991,2.0739999999999985,0.061,0.183,20,7,1,1,65,7,1,1,6,0.5,39,5.25,6,L,0.17455384615384614,0.29628571428571426,0.061,0.183
5,7,14,1,1,7.8689999999999936,14,42,83,80,13,82,8.112999999999994,0.5489999999999999,6.526999999999995,1.2809999999999993,17,2,14,4,45,2,28,4,3,0.5,24,3.75,6,L,0.1802888888888889,0.27449999999999997,0.23310714285714282,0.32024999999999987
5,8,15,1,1,4.879999999999996,16,37,83,80,82,16,6.221999999999996,2.9889999999999977,0.427,8.051999999999994,20,11,3,15,45,16,3,29,3,0.5,24,3.75,6,L,0.13826666666666665,0.1868125,0.14233333333333334,0.27765517241379306
5,8,16,1,3,12.19999999999999,18,55,95,26,50,59,13.602999999999989,0.183,0.7319999999999998,5.123999999999996,20,1,2,14,62,1,2,27,5,0,16,4,6,L,0.2194032258064516,0.183,0.366,0.18977777777777777
5,9,17,1,12,8.051999999999994,14,44,38,43,15,17,10.796999999999992,0.7929999999999997,6.587999999999995,1.8909999999999987,20,1,14,5,55,2,29,5,5,0,22,5.5,6,L,0.1963090909090909,0.39649999999999996,0.2271724137931034,0.3781999999999999
5,9,18,1,3,6.282999999999995,16,35,34,60,89,59,9.454999999999993,0.7319999999999998,13.05399999999999,1.3419999999999992,20,1,18,6,51,1,64,7,5,0,16,4,6,L,0.18539215686274507,0.7319999999999998,0.20396874999999998,0.1917142857142857
5,10,19,1,1,8.722999999999994,16,48,79,78,68,80,10.247999999999992,1.2809999999999993,1.8909999999999987,2.0129999999999986,20,5,3,9,54,8,3,12,3,0.5,22,3.25,6,L,0.18977777777777777,0.160125,0.6303333333333331,0.16775
5,10,20,1,8,13.663999999999989,18,80,108,100,53,56,13.846999999999989,4.086999999999997,3.842999999999997,0.244,19,11,13,3,81,15,18,3,2,0,12,3,6,L,0.1709506172839506,0.27246666666666663,0.21349999999999997,0.08133333333333333
5,11,21,1,12,8.539999999999994,18,43,41,7,61,94,8.600999999999994,2.744999999999998,6.526999999999995,4.208999999999997,19,7,14,11,44,9,27,16,5,0,18,4.5,6,L,0.19547727272727272,0.30499999999999994,0.24174074074074073,0.2630625
5,11,22,1,1,14.761999999999988,16,55,26,81,75,17,19.275999999999986,1.8909999999999987,2.1349999999999985,0.122,20,10,12,2,71,12,17,2,3,0,17,4.25,6,L,0.27149295774647886,0.15758333333333333,0.12558823529411764,0.061
5,12,23,1,15,12.01699999999999,13,63,16,22,18,69,13.907999999999989,2.561999999999998,1.8909999999999987,0.061,20,5,5,1,74,5,6,1,6,0.5,40,5.5,6,L,0.18794594594594594,0.5123999999999999,0.31516666666666665,0.061
5,12,24,1,7,8.295999999999994,16,39,6,5,12,7,11.162999999999991,4.513999999999997,0.6709999999999998,2.3789999999999982,20,13,3,8,55,20,3,11,6,1,72,6,6,L,0.20296363636363635,0.22569999999999998,0.22366666666666665,0.21627272727272726
5,13,25,1,2,8.783999999999994,18,50,56,55,49,52,9.271999999999993,1.3419999999999992,2.8669999999999978,2.683999999999998,20,7,12,11,54,7,21,13,4,1,48,4,6,L,0.1717037037037037,0.1917142857142857,0.13652380952380952,0.20646153846153845
5,13,26,1,8,12.13899999999999,19,50,75,104,82,99,19.702999999999985,0.061,10.918999999999992,0.6709999999999998,20,1,16,3,75,1,47,4,2,0,10,2.5,6,L,0.26270666666666664,0.061,0.23231914893617017,0.16775
5,14,27,1,7,7.441999999999994,15,39,1,8,94,46,10.674999999999992,4.025999999999997,4.147999999999997,1.2199999999999993,20,12,8,3,51,21,13,6,6,0,20,5,6,L,0.20931372549019608,0.1917142857142857,0.319076923076923,0.2033333333333333
5,14,28,1,11,10.308999999999992,13,51,61,71,83,80,10.430999999999992,1.7689999999999988,1.0979999999999994,0.9759999999999995,15,7,5,6,53,8,7,9,4,0,14,3.5,6,L,0.19681132075471697,0.221125,0.15685714285714286,0.10844444444444444
5,15,29,1,8,12.26099999999999,20,56,103,99,101,97,12.62699999999999,0.183,0.7929999999999997,1.2199999999999993,20,2,1,6,59,2,1,7,2,1,24,2,6,L,0.21401694915254235,0.0915,0.7929999999999997,0.17428571428571427
5,15,30,1,13,12.56599999999999,13,64,51,4,109,74,30.80499999999998,1.585999999999999,0.122,0.122,20,8,2,1,149,8,2,1,2,0,15,3.75,6,L,0.20674496644295298,0.19824999999999998,0.061,0.122
5,16,31,1,2,11.345999999999991,19,53,56,6,57,55,11.589999999999991,1.463999999999999,0.7929999999999997,0.183,20,5,4,2,54,5,4,2,4,0.5,30,4.5,6,L,0.21462962962962961,0.29279999999999995,0.19824999999999998,0.0915
5,16,32,1,15,8.173999999999994,19,44,71,77,78,47,16.34799999999999,0.061,0.5489999999999999,0.5489999999999999,20,1,4,1,75,1,5,1,6,0,15,3.75,6,L,0.2179733333333333,0.061,0.1098,0.5489999999999999
5,17,33,1,13,8.539999999999994,19,51,115,6,110,119,10.674999999999992,1.585999999999999,0.183,0.061,20,5,1,1,56,5,1,1,2,0.5,18,3,6,L,0.190625,0.3171999999999999,0.183,0.061
5,17,34,1,15,4.269999999999997,14,26,18,15,19,38,5.733999999999996,4.330999999999997,1.7079999999999989,6.343999999999995,19,12,8,13,31,18,9,30,6,0.5,41,5.75,6,L,0.18496774193548385,0.24061111111111108,0.18977777777777777,0.21146666666666666
5,18,35,1,11,12.32199999999999,20,60,70,74,65,68,17.994999999999987,1.2199999999999993,0.305,0.488,20,4,1,2,84,5,1,2,4,0.5,27,3.75,6,L,0.21422619047619043,0.244,0.305,0.244
5,18,36,1,14,8.600999999999994,18,37,89,87,95,22,11.101999999999991,0.9759999999999995,0.488,6.526999999999995,20,3,2,12,46,3,2,25,3,0.5,24,3.75,6,L,0.2413478260869565,0.3253333333333333,0.244,0.26108
5,19,37,1,8,22.081999999999983,16,97,102,86,2,9,22.203999999999983,1.0979999999999994,2.439999999999998,2.2569999999999983,18,2,9,6,99,2,14,8,2,0,17,4.25,6,L,0.22428282828282825,0.5489999999999999,0.17428571428571427,0.28212499999999996
5,19,38,1,15,7.197999999999994,19,49,13,19,24,47,9.210999999999993,9.332999999999993,0.6099999999999999,1.524999999999999,20,16,2,7,59,33,2,9,6,0.5,41,5.75,6,L,0.1561186440677966,0.28281818181818175,0.30499999999999994,0.16944444444444443
6,1,1,0,1,12.07799999999999,18,52,73,54,49,12,12.80999999999999,1.4029999999999991,2.805999999999998,0.5489999999999999,20,6,8,5,57,8,12,5,3,0,17,4.25,6,L,0.22473684210526315,0.175375,0.23383333333333334,0.1098
6,1,2,0,5,8.783999999999994,16,47,44,40,45,17,11.345999999999991,0.7929999999999997,0.183,2.683999999999998,20,4,2,7,57,6,2,8,5,0.5,36,5.25,6,L,0.19905263157894737,0.13216666666666665,0.0915,0.33549999999999996
6,2,3,0,5,7.990999999999993,16,37,39,20,43,24,11.650999999999991,3.537999999999997,0.244,6.404999999999995,20,11,2,13,51,16,2,20,5,0,22,5.5,6,L,0.22845098039215683,0.221125,0.122,0.3202499999999999
6,2,4,0,6,8.478999999999994,10,38,2,94,9,12,8.844999999999994,6.587999999999995,1.646999999999999,0.061,15,15,6,1,43,29,6,1,6,0.5,39,5.25,6,L,0.20569767441860465,0.2271724137931034,0.27449999999999997,0.061
6,3,5,0,2,8.539999999999994,16,47,58,7,51,57,10.186999999999992,0.488,0.9759999999999995,0.7319999999999998,20,1,5,2,56,1,5,2,4,0.5,30,4.5,6,L,0.1819107142857143,0.488,0.19519999999999998,0.366
6,3,6,0,9,16.835999999999988,20,82,70,61,66,97,17.384999999999987,1.0369999999999995,0.183,2.0129999999999986,20,5,1,9,85,5,1,11,4,0.5,26,3.5,6,L,0.20452941176470585,0.2074,0.183,0.183
6,4,7,0,6,10.125999999999992,16,54,5,61,94,90,16.469999999999988,1.646999999999999,2.1349999999999985,1.0369999999999995,20,9,7,3,71,11,8,4,6,0,16,4,6,L,0.23197183098591545,0.14972727272727274,0.266875,0.25925
6,4,8,0,5,12.01699999999999,20,60,44,46,22,14,16.40899999999999,1.463999999999999,0.427,0.7319999999999998,20,5,2,3,81,5,3,4,5,0,22,5.5,6,L,0.20258024691358023,0.2928,0.14233333333333334,0.183
6,5,9,0,3,8.356999999999994,16,41,93,106,2,35,22.142999999999983,1.0979999999999994,2.9279999999999977,0.122,20,6,9,1,106,8,10,1,5,0,16,4,6,L,0.2088962264150943,0.13724999999999998,0.29279999999999995,0.122
6,5,10,0,8,10.186999999999992,17,47,116,115,113,112,11.101999999999991,0.183,0.7929999999999997,3.0499999999999976,20,2,5,8,55,2,5,11,2,1,24,2,6,L,0.20185454545454543,0.0915,0.1586,0.2772727272727272
6,6,11,1,8,21.227999999999984,15,104,103,30,9,2,22.508999999999983,3.537999999999997,2.744999999999998,3.1719999999999975,20,9,12,10,116,14,15,15,2,0,19,4.75,6,L,0.19404310344827586,0.2527142857142857,0.183,0.21146666666666664
6,6,12,1,13,11.89499999999999,20,65,113,116,112,40,13.41999999999999,0.8539999999999996,1.646999999999999,1.0979999999999994,20,2,6,2,73,2,8,2,2,0.5,17,2.75,6,L,0.18383561643835616,0.4269999999999999,0.20587499999999997,0.5489999999999999
6,7,13,1,12,6.160999999999995,16,28,47,15,17,46,9.820999999999993,4.452999999999997,0.9759999999999995,0.122,20,13,4,2,42,17,4,2,5,0,22,5.5,6,L,0.2338333333333333,0.26194117647058823,0.244,0.061
6,7,14,1,11,12.32199999999999,15,57,66,80,3,1,13.602999999999989,6.465999999999995,2.1349999999999985,0.366,20,18,7,1,63,32,11,1,4,0,19,4.75,6,L,0.2159206349206349,0.20206249999999998,0.19409090909090906,0.366
6,8,15,1,7,8.722999999999994,18,55,88,4,5,32,15.00599999999999,2.2569999999999983,1.0369999999999995,0.9759999999999995,20,10,7,2,86,14,8,2,6,0,20,5,6,L,0.17448837209302326,0.1612142857142857,0.129625,0.488
6,8,16,1,8,10.979999999999992,17,53,108,104,46,82,11.89499999999999,4.269999999999997,8.844999999999994,0.366,20,15,14,3,59,21,32,3,2,0,12,3,6,L,0.2016101694915254,0.20333333333333334,0.27640624999999996,0.122
6,9,17,1,8,28.181999999999977,14,123,24,70,104,77,28.608999999999977,0.7319999999999998,2.9889999999999977,0.122,17,3,9,1,126,3,12,2,2,0,15,3.75,6,L,0.22705555555555554,0.244,0.2490833333333333,0.061
6,9,18,1,13,15.371999999999987,20,73,109,113,31,94,16.530999999999988,3.659999999999997,0.8539999999999996,1.7689999999999988,20,13,4,5,78,17,5,6,2,0,12,3,6,L,0.2119358974358974,0.21529411764705883,0.1708,0.29483333333333334
6,10,19,1,7,7.624999999999994,14,42,8,3,7,33,8.234999999999994,1.463999999999999,6.648999999999995,0.061,17,6,14,1,45,6,29,1,6,0.5,41,5.75,6,L,0.183,0.244,0.2292758620689655,0.061
6,10,20,1,11,13.29799999999999,13,62,70,90,63,89,13.48099999999999,1.9519999999999986,0.305,4.208999999999997,16,9,3,14,65,14,3,23,4,0,14,3.5,6,L,0.20739999999999997,0.13942857142857143,0.10166666666666667,0.183
6,11,21,1,8,23.118999999999982,10,93,99,77,72,66,24.15599999999998,2.439999999999998,1.1589999999999994,0.122,14,7,4,1,97,8,4,1,2,0,13,3.25,6,L,0.2490309278350515,0.305,0.28975,0.122
6,11,22,1,15,13.05399999999999,17,62,16,19,95,88,14.761999999999988,0.244,1.8299999999999987,3.2329999999999974,20,2,6,12,71,2,6,15,6,0,18,4.5,6,L,0.20791549295774647,0.122,0.305,0.2155333333333333
6,12,23,1,7,10.430999999999992,14,46,7,4,112,9,10.613999999999992,4.6969999999999965,1.7079999999999989,2.3179999999999983,16,15,7,6,48,23,8,6,6,0.5,38,5,6,L,0.22112499999999996,0.20421739130434782,0.2135,0.38633333333333325
6,12,24,1,2,18.421999999999986,13,88,60,39,57,49,18.787999999999986,0.7319999999999998,0.9759999999999995,3.476999999999997,15,1,3,13,90,1,3,18,4,0.5,29,4.25,6,L,0.20875555555555556,0.7319999999999998,0.3253333333333333,0.19316666666666665
6,13,25,1,2,6.465999999999995,17,33,51,60,52,49,7.990999999999994,0.6099999999999999,0.061,1.585999999999999,20,5,1,6,42,5,1,6,4,1,48,4,6,L,0.19026190476190474,0.122,0.061,0.2643333333333333
6,13,26,1,8,7.8689999999999936,16,42,102,14,101,72,19.031999999999986,2.1349999999999985,0.061,1.524999999999999,20,9,1,6,84,11,1,7,2,0,14,3.5,6,L,0.22657142857142856,0.19409090909090906,0.061,0.21785714285714283
6,14,27,1,11,11.589999999999991,19,61,63,100,34,62,12.93199999999999,2.0129999999999986,0.7929999999999997,1.4029999999999991,20,6,3,5,66,8,3,7,4,0,15,3.75,6,L,0.1959393939393939,0.251625,0.2643333333333333,0.2004285714285714
6,14,28,1,14,11.95599999999999,17,69,85,16,116,14,12.01699999999999,3.4159999999999973,1.524999999999999,0.183,18,8,4,1,70,13,4,1,3,0,17,4.25,6,L,0.17167142857142856,0.2627692307692307,0.3812499999999999,0.183
6,15,29,1,11,9.637999999999993,19,58,61,68,62,20,11.406999999999991,1.1589999999999994,2.500999999999998,2.561999999999998,20,5,8,11,72,7,12,16,4,0.5,30,4.5,6,L,0.15843055555555555,0.16557142857142856,0.20841666666666664,0.160125
6,15,30,1,2,7.441999999999994,16,35,49,108,51,98,8.905999999999993,6.770999999999995,3.4159999999999973,1.8909999999999987,20,17,11,8,42,34,15,10,4,0,12,3,6,L,0.21204761904761904,0.1991470588235294,0.2277333333333333,0.1891
6,16,31,1,8,11.71199999999999,19,62,36,98,102,54,17.994999999999987,0.488,1.585999999999999,0.366,20,3,8,2,98,3,9,3,2,0,13,3.25,6,L,0.18362244897959182,0.16266666666666665,0.17622222222222222,0.122
6,16,32,1,14,9.088999999999993,18,53,95,67,111,116,10.613999999999992,8.234999999999994,1.8909999999999987,2.683999999999998,20,15,6,6,60,37,7,7,3,0,11,2.75,6,L,0.1769,0.22256756756756754,0.27014285714285713,0.3834285714285713
6,17,33,1,11,11.162999999999991,19,46,63,62,89,95,11.223999999999991,0.7319999999999998,2.561999999999998,2.1959999999999984,20,5,7,7,47,5,10,10,4,0,14,3.5,6,L,0.23880851063829783,0.1464,0.2562,0.2196
6,17,34,1,7,4.330999999999997,14,27,5,4,7,98,4.6969999999999965,3.476999999999997,0.427,2.0129999999999986,17,10,4,7,30,14,4,9,6,0.5,38,5,6,L,0.15656666666666666,0.24835714285714286,0.10675,0.22366666666666665
6,18,35,1,2,8.478999999999994,16,44,58,55,59,95,8.905999999999993,0.366,2.500999999999998,1.8909999999999987,19,2,9,7,47,2,13,8,4,0.5,27,3.75,6,L,0.18948936170212766,0.183,0.19238461538461538,0.236375
6,18,36,1,15,13.602999999999989,20,80,19,28,34,104,14.212999999999989,2.9889999999999977,0.7929999999999997,0.366,20,12,3,3,84,16,3,3,6,0,18,4.5,6,L,0.16920238095238094,0.1868125,0.2643333333333333,0.122
6,19,37,1,14,9.881999999999993,17,41,96,23,90,85,10.674999999999992,1.8909999999999987,0.183,0.6709999999999998,20,8,2,7,46,9,2,7,3,0.5,24,3.75,6,L,0.2320652173913043,0.21011111111111108,0.0915,0.09585714285714285
6,19,38,1,7,4.7579999999999965,14,22,2,1,6,9,9.698999999999993,1.9519999999999986,0.122,0.6099999999999999,20,7,1,4,38,9,1,4,6,1,72,6,6,L,0.25523684210526315,0.21688888888888885,0.122,0.1525
7,1,1,0,4,13.907999999999989,19,58,106,100,104,29,14.944999999999988,1.2199999999999993,3.537999999999997,2.622999999999998,20,3,11,7,62,4,17,9,2,0.5,17,2.75,7,L,0.24104838709677417,0.305,0.20811764705882352,0.29144444444444434
7,1,2,0,9,5.184999999999996,14,30,3,93,71,8,16.957999999999988,0.183,0.122,1.0369999999999995,20,1,2,5,84,1,2,5,4,0,19,4.75,7,L,0.20188095238095236,0.183,0.061,0.2074
7,2,3,0,9,6.8929999999999945,15,36,69,103,62,102,8.356999999999994,0.488,4.391999999999997,1.0979999999999994,18,2,10,7,40,2,18,8,4,0,12,3,7,L,0.208925,0.244,0.24399999999999997,0.13724999999999998
7,2,4,0,1,8.661999999999994,15,47,80,23,16,83,8.783999999999994,2.561999999999998,1.4029999999999991,2.9279999999999977,16,10,6,7,48,12,7,12,3,0,18,4.5,7,L,0.183,0.2135,0.2004285714285714,0.244
7,3,5,0,8,5.245999999999996,12,22,118,85,29,63,7.380999999999995,0.8539999999999996,4.635999999999997,0.122,20,1,10,1,33,1,15,1,2,0,14,3.5,7,L,0.22366666666666665,0.8539999999999996,0.30906666666666666,0.122
7,3,6,0,5,9.271999999999993,19,54,41,43,42,53,9.637999999999993,1.0369999999999995,1.1589999999999994,5.184999999999996,20,5,5,12,55,5,5,25,5,0.5,34,4.75,7,L,0.17523636363636363,0.2074,0.2318,0.20739999999999997
7,4,7,0,7,6.587999999999995,14,31,17,29,21,101,13.724999999999989,0.9149999999999996,2.1349999999999985,0.061,20,2,8,1,69,2,10,1,6,0,19,4.75,7,L,0.19891304347826086,0.4575,0.2135,0.061
7,4,8,0,10,9.027999999999993,18,51,52,54,96,90,13.358999999999991,6.343999999999995,0.122,0.244,20,13,2,2,68,21,2,2,3,0,14,3.5,7,L,0.19645588235294115,0.30209523809523803,0.061,0.122
7,5,9,0,8,8.051999999999994,19,47,113,117,60,4,9.393999999999993,5.489999999999996,2.561999999999998,0.7319999999999998,20,14,11,2,51,25,14,2,2,0,14,3.5,7,L,0.18419607843137253,0.2196,0.183,0.366
7,5,10,0,4,11.589999999999991,18,42,13,102,104,18,13.785999999999989,0.244,3.2939999999999974,1.2809999999999993,20,2,11,4,54,2,14,5,2,0,16,4,7,L,0.25529629629629624,0.122,0.2352857142857143,0.2562
7,6,11,0,9,12.38299999999999,15,60,71,65,113,28,13.35899999999999,1.9519999999999986,1.463999999999999,1.7079999999999989,20,6,6,4,66,6,6,6,4,0,15,3.75,7,L,0.2024090909090909,0.3253333333333333,0.24399999999999997,0.2846666666666666
7,6,12,0,5,10.308999999999992,13,50,45,107,52,90,20.007999999999985,3.3549999999999973,2.683999999999998,9.454999999999993,20,10,9,15,84,11,11,41,5,0,14,3.5,7,L,0.23819047619047617,0.30499999999999994,0.24399999999999994,0.23060975609756096
7,7,13,1,8,10.979999999999992,17,58,97,21,74,66,12.74899999999999,3.2939999999999974,1.2809999999999993,0.488,20,7,5,2,63,9,6,2,2,0,15,3.75,7,L,0.20236507936507936,0.36599999999999994,0.2135,0.244
7,7,14,1,2,11.101999999999991,15,47,58,4,56,40,26.77899999999998,0.061,0.244,0.183,20,1,1,2,112,1,1,2,4,0,19,4.75,7,L,0.23909821428571426,0.061,0.244,0.0915
7,8,15,1,1,5.550999999999996,12,24,81,83,18,108,6.7099999999999955,1.585999999999999,2.1959999999999984,1.7079999999999989,17,8,7,8,30,9,11,10,3,0,14,3.5,7,L,0.22366666666666665,0.1762222222222222,0.1996363636363636,0.1708
7,8,16,1,3,13.35899999999999,20,64,27,110,28,49,14.517999999999988,1.0979999999999994,0.488,0.9759999999999995,20,7,2,5,69,7,2,6,5,0,16,4,7,L,0.21040579710144927,0.15685714285714286,0.244,0.16266666666666665
7,9,17,1,1,10.064999999999992,16,42,81,78,32,73,10.735999999999992,0.061,1.2809999999999993,1.0369999999999995,20,1,3,5,46,1,3,5,3,0.5,23,3.5,7,L,0.23339130434782607,0.061,0.4269999999999998,0.2074
7,9,18,1,13,13.968999999999989,18,65,21,17,116,66,17.384999999999987,17.872999999999987,0.6709999999999998,1.7689999999999988,20,19,2,5,87,73,2,6,2,0,18,4.5,7,L,0.19982758620689653,0.24483561643835614,0.3354999999999999,0.2948333333333333
7,10,19,1,15,12.26099999999999,15,50,72,24,95,37,14.334999999999988,2.0739999999999985,6.343999999999995,1.8299999999999987,19,7,14,5,55,10,29,7,6,0,18,4.5,7,L,0.2606363636363636,0.2074,0.21875862068965513,0.2614285714285714
7,10,20,1,3,12.01699999999999,19,69,27,1,2,5,12.50499999999999,4.574999999999997,1.2199999999999993,0.9149999999999996,20,11,7,3,73,17,9,3,5,0.5,41,5.75,7,L,0.1713013698630137,0.2691176470588235,0.13555555555555554,0.30499999999999994
7,11,21,1,8,9.210999999999993,18,56,100,15,107,108,9.820999999999993,4.879999999999996,1.463999999999999,5.550999999999996,20,13,6,14,59,19,6,23,2,0.5,18,3,7,L,0.16645762711864406,0.25684210526315787,0.24399999999999994,0.2413478260869565
7,11,22,1,12,11.77299999999999,17,49,82,45,51,116,15.371999999999987,2.3789999999999982,2.1349999999999985,0.7319999999999998,20,12,7,2,62,14,8,3,5,0,14,3.5,7,L,0.24793548387096773,0.16992857142857143,0.266875,0.244
7,12,23,1,8,10.674999999999992,17,56,100,103,73,3,11.589999999999991,1.2809999999999993,0.7319999999999998,5.001999999999996,20,8,3,10,61,8,4,18,2,0,13,3.25,7,L,0.18999999999999997,0.160125,0.183,0.27788888888888885
7,12,24,1,12,15.127999999999988,16,84,40,22,23,93,17.262999999999987,2.2569999999999983,5.672999999999996,7.9299999999999935,20,5,15,14,94,6,24,32,5,0,20,5,7,L,0.18364893617021275,0.37616666666666654,0.23637499999999997,0.24781249999999996
7,13,25,1,14,16.530999999999988,18,69,95,93,26,17,18.116999999999987,0.366,0.6099999999999999,5.184999999999996,20,3,1,12,75,3,1,23,3,0,17,4.25,7,L,0.24155999999999997,0.122,0.6099999999999999,0.22543478260869565
7,13,26,1,12,11.101999999999991,18,58,41,47,11,66,12.93199999999999,4.6969999999999965,3.598999999999997,0.7319999999999998,20,15,9,5,63,25,11,5,5,0,20,5,7,L,0.20526984126984127,0.18788,0.32718181818181813,0.1464
7,14,27,1,13,15.493999999999987,18,71,13,90,48,109,16.835999999999988,1.0979999999999994,0.366,0.7929999999999997,20,3,3,5,75,3,3,5,2,0,16,4,7,L,0.22447999999999999,0.366,0.122,0.1586
7,14,28,1,2,5.245999999999996,16,35,59,10,54,51,14.27399999999999,3.4159999999999973,5.245999999999996,1.7079999999999989,20,15,12,4,84,21,20,9,4,0.5,30,4.5,7,L,0.16992857142857143,0.16266666666666665,0.2622999999999999,0.18977777777777777
7,15,29,1,14,22.508999999999983,20,113,89,107,63,72,22.569999999999983,0.5489999999999999,1.0369999999999995,0.427,20,3,5,2,114,3,5,2,3,0,13,3.25,7,L,0.19798245614035087,0.183,0.2074,0.2135
7,15,30,1,1,10.918999999999992,19,49,78,6,43,50,11.528999999999991,6.404999999999995,0.122,1.3419999999999992,20,16,1,2,55,34,1,2,3,0,18,4.5,7,L,0.2096181818181818,0.18838235294117647,0.122,0.6709999999999998
7,16,31,1,13,14.029999999999989,15,72,63,69,19,117,20.068999999999985,0.5489999999999999,0.183,0.5489999999999999,20,1,2,3,95,1,2,3,2,0,16,4,7,L,0.21125263157894736,0.5489999999999999,0.0915,0.183
7,16,32,1,2,21.898999999999983,17,88,1,56,77,58,24.21699999999998,1.1589999999999994,1.7079999999999989,0.061,20,5,6,1,98,5,7,1,4,0,17,4.25,7,L,0.24711224489795916,0.2318,0.244,0.061
7,17,33,1,11,11.284999999999991,16,59,68,18,69,64,16.22599999999999,5.367999999999996,1.8299999999999987,1.8909999999999987,20,11,6,6,80,19,11,9,4,0.5,30,4.5,7,L,0.20282499999999998,0.2825263157894737,0.16636363636363635,0.21011111111111108
7,17,34,1,7,11.589999999999991,12,47,6,31,3,54,15.493999999999987,1.585999999999999,1.0979999999999994,1.8909999999999987,20,7,5,4,68,8,6,4,6,0,21,5.25,7,L,0.22785294117647056,0.19824999999999998,0.183,0.4727499999999999
7,18,35,1,15,9.149999999999993,19,42,15,18,19,23,12.38299999999999,0.5489999999999999,0.366,0.8539999999999996,20,3,1,6,57,3,2,6,6,1,72,6,7,L,0.2172456140350877,0.183,0.183,0.14233333333333334
7,18,36,1,13,7.624999999999994,18,41,117,113,88,112,9.088999999999993,1.1589999999999994,7.502999999999994,2.0129999999999986,20,5,13,8,48,5,33,9,2,0.5,15,2.25,7,L,0.18935416666666666,0.2318,0.22736363636363635,0.22366666666666662
8,1,1,0,10,11.77299999999999,17,59,95,93,94,26,13.846999999999989,1.2199999999999993,2.683999999999998,1.463999999999999,20,3,10,8,72,4,10,11,3,0.5,23,3.5,6,L,0.19231944444444443,0.30499999999999994,0.26839999999999997,0.1330909090909091
8,1,2,0,5,12.99299999999999,20,60,21,40,39,56,14.273999999999988,1.3419999999999992,1.9519999999999986,1.7689999999999988,20,5,9,5,65,6,11,6,5,0,20,5,6,L,0.21959999999999996,0.22366666666666665,0.17745454545454545,0.2948333333333333
8,2,3,0,10,15.371999999999987,18,75,86,33,28,92,16.896999999999988,0.427,1.9519999999999986,7.624999999999994,20,1,5,14,83,1,6,29,3,0,16,4,6,L,0.20357831325301204,0.427,0.32533333333333325,0.26293103448275856
8,2,4,0,1,10.552999999999992,17,50,2,82,9,77,22.020999999999983,0.061,0.061,0.305,20,1,1,2,102,1,1,2,3,0,18,4.5,6,L,0.21589215686274507,0.061,0.061,0.1525
8,3,5,0,6,7.319999999999994,17,34,3,5,104,29,11.95599999999999,1.2199999999999993,0.7319999999999998,0.183,20,5,4,3,52,5,4,3,6,0,19,4.75,6,L,0.22992307692307692,0.24399999999999997,0.183,0.061
8,3,6,0,8,9.881999999999993,18,50,115,117,109,21,10.369999999999992,0.061,1.3419999999999992,4.269999999999997,20,1,5,8,53,1,6,11,2,0.5,18,3,6,L,0.19566037735849057,0.061,0.22366666666666662,0.38818181818181813
8,4,7,0,1,8.966999999999993,19,50,31,11,27,57,12.62699999999999,6.648999999999995,2.1349999999999985,0.9759999999999995,20,16,8,4,61,26,11,5,3,0,20,5,6,L,0.207,0.2557307692307692,0.1940909090909091,0.19519999999999998
8,4,8,0,7,9.942999999999993,18,50,13,18,19,95,13.48099999999999,0.9149999999999996,1.7079999999999989,2.3179999999999983,20,5,6,9,72,6,7,13,6,0.5,39,5.25,6,L,0.1872361111111111,0.1525,0.244,0.1783076923076923
8,5,9,0,9,7.685999999999994,17,41,70,71,7,79,8.478999999999994,2.8669999999999978,2.3789999999999982,4.147999999999997,20,8,10,11,45,9,14,14,4,0,17,4.25,6,L,0.1884222222222222,0.31855555555555554,0.1699285714285714,0.29628571428571426
8,5,10,0,7,7.563999999999994,15,43,16,15,92,17,9.698999999999993,1.4029999999999991,0.5489999999999999,1.4029999999999991,20,8,4,6,52,8,4,6,6,0.5,39,5.25,6,L,0.18651923076923077,0.175375,0.13724999999999998,0.23383333333333334
8,6,11,1,3,17.750999999999987,18,76,25,6,118,91,19.397999999999985,7.014999999999994,3.659999999999997,1.1589999999999994,20,16,9,4,83,32,14,4,5,0,16,4,6,L,0.23371084337349396,0.21921874999999996,0.2614285714285714,0.28975
8,6,12,1,12,11.406999999999991,18,57,39,54,58,79,12.38299999999999,4.391999999999997,4.7579999999999965,0.9759999999999995,20,10,13,4,60,13,19,4,5,0,16,4,6,L,0.20638333333333334,0.33784615384615374,0.25042105263157893,0.244
8,7,13,1,1,12.50499999999999,18,61,75,82,36,31,14.578999999999988,0.305,5.062999999999996,0.061,20,3,11,1,74,3,18,1,3,0,16,4,6,L,0.19701351351351348,0.10166666666666667,0.28127777777777774,0.061
8,7,14,1,11,15.188999999999988,18,88,68,66,37,20,17.506999999999987,0.061,0.6709999999999998,1.0979999999999994,20,1,8,7,100,1,8,8,4,0,19,4.75,6,L,0.17507,0.061,0.083875,0.13724999999999998
8,8,15,1,15,7.8689999999999936,17,35,70,91,85,46,12.56599999999999,1.646999999999999,1.7079999999999989,0.122,20,5,7,2,52,7,7,2,6,0,15,3.75,6,L,0.24165384615384614,0.2352857142857143,0.24399999999999994,0.061
8,8,16,1,7,6.465999999999995,17,36,1,8,32,31,6.8319999999999945,0.8539999999999996,2.805999999999998,0.305,18,4,7,1,37,4,10,1,6,0,22,5.5,6,L,0.18464864864864863,0.2135,0.28059999999999996,0.305
8,9,17,1,13,13.968999999999989,19,77,116,67,47,71,14.212999999999989,3.537999999999997,2.0739999999999985,0.122,20,11,8,2,80,16,8,2,2,0,15,3.75,6,L,0.1776625,0.22112499999999996,0.25925,0.061
8,9,18,1,7,9.820999999999993,19,49,5,3,4,6,9.881999999999993,2.0129999999999986,0.488,0.8539999999999996,20,7,5,4,50,9,5,4,6,1,72,6,6,L,0.19763999999999998,0.22366666666666665,0.09759999999999999,0.2135
8,10,19,1,13,12.07799999999999,19,54,116,69,112,67,15.249999999999988,1.2199999999999993,0.122,3.1109999999999975,20,6,1,9,71,8,1,13,2,0,12,3,6,L,0.2147887323943662,0.1525,0.122,0.23930769230769228
8,10,20,1,1,14.090999999999989,20,62,83,26,80,32,14.151999999999989,0.6709999999999998,2.744999999999998,3.720999999999997,20,2,10,10,63,3,13,14,3,0,16,4,6,L,0.2246349206349206,0.22366666666666665,0.21115384615384614,0.26578571428571424
8,11,21,1,14,7.380999999999994,18,40,30,25,31,2,15.371999999999987,14.700999999999988,11.101999999999991,40.25999999999997,20,18,16,17,65,66,36,174,3,0.5,36,5.25,6,L,0.23649230769230764,0.22274242424242421,0.3083888888888888,0.23137931034482756
8,11,22,1,1,8.478999999999994,13,47,81,80,79,75,9.393999999999993,1.7079999999999989,1.4029999999999991,2.1959999999999984,17,9,7,9,51,10,10,13,3,1,36,3,6,L,0.18419607843137253,0.1708,0.1403,0.16892307692307693
8,12,23,1,12,17.384999999999987,14,79,45,46,87,90,18.543999999999986,8.783999999999994,2.8669999999999978,4.452999999999997,18,16,11,12,84,41,16,18,5,0,16,4,6,L,0.22076190476190474,0.2142439024390244,0.1791875,0.24738888888888885
8,12,24,1,3,12.07799999999999,18,67,28,33,74,78,15.554999999999987,0.427,3.4159999999999973,1.524999999999999,20,4,8,8,79,4,16,8,5,0,16,4,6,L,0.19689873417721518,0.10675,0.21349999999999997,0.190625
8,13,25,1,1,12.62699999999999,17,61,75,4,12,118,12.93199999999999,5.7339999999999955,2.561999999999998,8.539999999999994,19,15,13,14,63,24,20,30,3,0,17,4.25,6,L,0.20526984126984124,0.23891666666666664,0.1281,0.2846666666666666
8,13,26,1,14,14.334999999999988,18,84,96,33,88,103,14.822999999999988,1.2809999999999993,1.2199999999999993,2.9889999999999977,20,4,5,10,86,5,5,13,3,0,13,3.25,6,L,0.17236046511627906,0.2562,0.244,0.22992307692307692
8,14,27,1,8,8.600999999999994,20,40,106,105,72,63,9.332999999999993,0.5489999999999999,7.746999999999994,0.6099999999999999,20,5,13,1,46,5,29,1,2,0,12,3,6,L,0.20289130434782607,0.1098,0.26713793103448275,0.6099999999999999
8,14,28,1,15,10.430999999999992,17,61,22,38,14,58,13.41999999999999,1.524999999999999,1.524999999999999,4.879999999999996,20,5,5,13,71,9,6,21,6,0,21,5.25,6,L,0.18901408450704224,0.16944444444444443,0.25416666666666665,0.23238095238095235
8,15,29,1,15,5.245999999999996,15,30,16,107,93,103,5.611999999999996,1.463999999999999,2.1349999999999985,2.0129999999999986,17,2,4,5,32,2,7,6,6,0,13,3.25,6,L,0.175375,0.7319999999999995,0.305,0.33549999999999996
8,15,30,1,13,10.613999999999992,19,56,110,117,70,36,11.467999999999991,0.488,4.147999999999997,0.305,20,3,12,1,61,3,21,1,2,0,13,3.25,6,L,0.188,0.16266666666666665,0.19752380952380952,0.305
8,16,31,1,3,19.458999999999985,17,85,26,29,33,22,19.580999999999985,3.1109999999999975,0.6709999999999998,7.9299999999999935,18,10,3,15,86,13,3,32,5,0.5,36,5.25,6,L,0.22768604651162788,0.23930769230769228,0.22366666666666665,0.24781249999999996
8,16,32,1,14,8.173999999999994,20,43,86,89,65,10,11.83399999999999,0.7319999999999998,4.879999999999996,5.062999999999996,20,5,13,12,54,5,15,19,3,0,16,4,6,L,0.21914814814814815,0.1464,0.3253333333333333,0.2664736842105263
8,17,33,1,12,9.271999999999993,19,46,70,42,39,38,10.064999999999992,1.0369999999999995,2.9889999999999977,0.6099999999999999,20,4,10,3,47,5,14,3,5,0.5,34,4.75,6,L,0.21414893617021274,0.2074,0.2135,0.20333333333333334
8,17,34,1,3,5.855999999999995,17,37,28,14,54,79,10.613999999999992,13.41999999999999,4.025999999999997,2.1349999999999985,20,15,9,6,60,50,13,8,5,0,18,4.5,6,L,0.1769,0.26839999999999997,0.30969230769230766,0.2668749999999999
8,18,35,1,3,12.44399999999999,15,58,29,30,31,57,16.34799999999999,1.0979999999999994,1.585999999999999,3.0499999999999976,20,5,7,9,79,6,9,14,5,0.5,34,4.75,6,L,0.20693670886075946,0.18299999999999997,0.17622222222222222,0.21785714285714283
8,18,36,1,12,22.325999999999983,17,117,67,47,46,8,22.935999999999982,2.744999999999998,0.7319999999999998,5.001999999999996,19,8,3,14,119,10,3,27,5,0,20,5,6,L,0.1927394957983193,0.2744999999999999,0.244,0.18525925925925926
9,1,1,0,2,12.13899999999999,18,66,52,35,8,115,18.055999999999987,1.7079999999999989,4.269999999999997,1.3419999999999992,20,7,13,3,93,9,26,3,4,0,17,4.25,6,L,0.1941505376344086,0.18977777777777777,0.16423076923076924,0.44733333333333325
9,1,2,0,9,13.785999999999989,19,71,68,100,22,19,13.846999999999989,1.8299999999999987,0.488,3.1109999999999975,20,7,1,9,72,7,1,16,4,0,18,4.5,6,L,0.19231944444444443,0.2614285714285714,0.488,0.19443749999999999
9,2,3,0,9,6.8929999999999945,17,32,13,65,68,109,10.430999999999992,0.061,0.244,1.3419999999999992,20,1,2,4,41,1,2,4,4,0,16,4,6,L,0.25441463414634147,0.061,0.122,0.3354999999999999
9,2,4,0,4,12.80999999999999,19,70,104,3,30,106,14.456999999999988,3.1109999999999975,0.366,7.746999999999994,20,8,3,12,80,10,3,27,2,0,15,3.75,6,L,0.1807125,0.31109999999999993,0.122,0.28692592592592586
9,3,5,0,8,6.8319999999999945,15,37,120,81,112,9,10.308999999999992,3.1719999999999975,0.061,0.7929999999999997,20,8,1,4,56,10,1,5,2,0,13,3.25,6,L,0.1840892857142857,0.3172,0.061,0.1586
9,3,6,0,9,10.857999999999992,18,49,64,14,62,61,14.456999999999988,1.2809999999999993,0.9149999999999996,2.683999999999998,20,4,7,8,71,4,8,10,4,0.5,30,4.5,6,L,0.20361971830985914,0.3202499999999999,0.114375,0.26839999999999997
9,4,7,0,1,10.552999999999992,17,63,76,73,22,20,12.80999999999999,0.6709999999999998,4.330999999999997,2.439999999999998,20,4,12,7,74,4,15,8,3,0,18,4.5,6,L,0.17310810810810812,0.16775,0.2887333333333333,0.30499999999999994
9,4,8,0,2,5.7949999999999955,16,32,60,120,51,89,9.454999999999993,3.0499999999999976,2.2569999999999983,0.488,20,12,9,2,47,20,11,2,4,0,13,3.25,6,L,0.20117021276595742,0.1525,0.2051818181818182,0.244
9,5,9,0,1,11.71199999999999,20,58,73,75,57,103,12.62699999999999,0.061,0.9149999999999996,4.940999999999996,20,1,2,12,63,1,3,20,3,0,12,3,6,L,0.20042857142857143,0.061,0.305,0.24705
9,5,10,0,10,7.9299999999999935,18,46,92,96,93,115,12.87099999999999,1.8299999999999987,1.7079999999999989,2.439999999999998,20,9,5,6,63,10,8,7,3,0.5,20,2.75,6,L,0.2043015873015873,0.183,0.2135,0.3485714285714285
9,6,11,1,15,12.07799999999999,19,68,117,39,83,119,13.48099999999999,3.3549999999999973,0.061,2.3179999999999983,20,13,1,7,72,18,1,9,6,0,12,3,6,L,0.1872361111111111,0.18638888888888888,0.061,0.25755555555555554
9,6,12,1,2,8.722999999999994,16,42,36,60,102,101,12.62699999999999,0.244,2.683999999999998,0.366,20,1,9,3,65,1,14,3,4,0,13,3.25,6,L,0.19426153846153846,0.244,0.1917142857142857,0.122
9,7,13,1,8,14.944999999999988,17,73,106,83,48,108,15.066999999999988,0.6709999999999998,2.0739999999999985,3.842999999999997,19,1,6,8,75,1,8,13,2,0,12,3,6,L,0.2008933333333333,0.6709999999999998,0.25925,0.2956153846153846
9,7,14,1,3,7.014999999999994,17,33,27,28,110,29,13.907999999999989,0.061,0.305,0.244,20,1,2,2,66,1,2,2,5,0.5,32,4.25,6,L,0.2107272727272727,0.061,0.1525,0.122
9,8,15,1,3,10.796999999999992,16,53,50,81,103,36,13.05399999999999,1.0369999999999995,0.8539999999999996,0.366,20,4,3,3,61,4,4,3,5,0,14,3.5,6,L,0.214,0.25925,0.2135,0.122
9,8,16,1,13,7.502999999999994,16,38,109,96,111,110,25.25399999999998,8.722999999999994,0.061,0.9149999999999996,20,17,1,1,86,44,1,1,2,0.5,15,2.25,6,L,0.2936511627906976,0.19824999999999998,0.061,0.9149999999999996
9,9,17,1,8,11.77299999999999,18,57,97,54,75,56,21.471999999999984,0.6099999999999999,0.183,2.3789999999999982,20,2,2,7,102,3,2,8,2,0,13,3.25,6,L,0.21050980392156862,0.20333333333333334,0.0915,0.29737499999999994
9,9,18,1,11,9.820999999999993,13,48,109,70,72,32,13.48099999999999,0.9149999999999996,2.9279999999999977,2.3179999999999983,20,5,8,6,60,6,10,10,4,0,15,3.75,6,L,0.22468333333333332,0.1525,0.29279999999999995,0.23179999999999998
9,10,19,1,8,12.01699999999999,18,51,94,46,105,24,22.569999999999983,4.879999999999996,7.075999999999994,0.366,20,11,14,3,96,19,30,3,2,0,16,4,6,L,0.23510416666666664,0.25684210526315787,0.23586666666666664,0.122
9,10,20,1,7,5.916999999999995,13,31,8,7,25,33,8.051999999999994,0.122,1.2809999999999993,13.23699999999999,20,2,6,15,42,2,6,60,6,0,22,5.5,6,L,0.1917142857142857,0.061,0.2135,0.22061666666666666
9,11,21,1,8,10.857999999999992,18,51,103,97,99,44,10.979999999999992,0.9149999999999996,0.122,1.0369999999999995,19,5,1,1,52,5,1,1,2,0.5,17,2.75,6,L,0.21115384615384614,0.183,0.122,1.0369999999999995
9,11,22,1,14,7.380999999999994,14,37,85,92,111,95,8.661999999999994,0.7929999999999997,1.2199999999999993,0.244,20,3,3,1,45,3,4,1,3,0.5,20,2.75,6,L,0.1924888888888889,0.2643333333333333,0.305,0.244
9,12,23,1,3,10.613999999999992,13,47,33,15,34,17,12.38299999999999,7.014999999999994,0.183,2.1959999999999984,18,15,1,9,53,32,1,11,5,0,22,5.5,6,L,0.23364150943396225,0.21921875,0.183,0.1996363636363636
9,12,24,1,8,11.040999999999991,19,59,102,103,39,44,11.589999999999991,1.7689999999999988,1.463999999999999,2.3179999999999983,20,10,4,12,63,11,5,14,2,0,14,3.5,6,L,0.18396825396825398,0.1608181818181818,0.2927999999999999,0.16557142857142856
9,13,25,1,15,16.40899999999999,20,78,112,22,67,34,17.384999999999987,0.9759999999999995,1.0369999999999995,1.3419999999999992,20,7,7,4,81,10,7,4,6,0,17,4.25,6,L,0.21462962962962961,0.09759999999999999,0.14814285714285713,0.33549999999999996
9,13,26,1,7,5.428999999999996,16,31,1,10,100,108,5.7339999999999955,2.9889999999999977,2.1959999999999984,3.476999999999997,19,10,6,9,34,13,6,14,6,0,16,4,6,L,0.16864705882352943,0.2299230769230769,0.366,0.24835714285714283
9,14,27,1,7,10.064999999999992,18,56,2,3,44,106,10.674999999999992,2.3789999999999982,8.600999999999994,3.659999999999997,20,12,14,7,59,17,36,12,6,0,19,4.75,6,L,0.18093220338983051,0.13994117647058824,0.23891666666666664,0.305
9,14,28,1,1,17.079999999999988,19,81,78,21,74,28,17.933999999999987,2.8669999999999978,2.0129999999999986,0.061,20,14,10,1,88,20,11,1,3,0,17,4.25,6,L,0.20379545454545453,0.14335,0.183,0.061
9,15,29,1,13,11.162999999999991,17,51,116,43,76,41,15.798999999999989,4.940999999999996,0.8539999999999996,1.646999999999999,20,16,3,6,71,29,4,8,2,0,15,3.75,6,L,0.22252112676056335,0.1703793103448276,0.2135,0.205875
9,15,30,1,14,10.674999999999992,16,44,88,87,91,100,10.979999999999992,1.2809999999999993,0.061,1.646999999999999,18,8,1,4,46,8,1,5,3,0.5,20,2.75,6,L,0.238695652173913,0.160125,0.061,0.3293999999999999
9,16,31,1,13,12.26099999999999,19,59,2,10,83,8,22.752999999999982,1.3419999999999992,3.3549999999999973,0.488,20,7,9,4,109,7,10,5,2,0.5,39,5.25,6,L,0.20874311926605502,0.1917142857142857,0.3354999999999999,0.09759999999999999
9,16,32,1,15,14.578999999999988,19,72,23,50,51,24,14.639999999999988,0.6099999999999999,1.8299999999999987,2.0129999999999986,20,3,7,7,73,3,10,9,6,0,20,5,6,L,0.20054794520547944,0.20333333333333334,0.183,0.22366666666666665
9,17,33,1,14,6.8929999999999945,16,35,86,90,91,70,9.454999999999993,6.953999999999994,0.061,0.366,20,15,1,1,44,40,1,1,3,0.5,22,3.25,6,L,0.21488636363636363,0.17385,0.061,0.366
9,17,34,1,15,11.406999999999991,18,57,32,13,15,104,12.07799999999999,1.7689999999999988,5.184999999999996,3.598999999999997,20,7,11,8,60,8,19,10,6,0,19,4.75,6,L,0.20129999999999998,0.221125,0.27289473684210525,0.35989999999999994
9,18,35,1,8,13.11499999999999,18,58,31,12,51,73,17.201999999999988,2.9279999999999977,0.244,4.879999999999996,20,11,1,12,75,12,1,22,2,0,18,4.5,6,L,0.22935999999999998,0.244,0.244,0.22181818181818178
9,18,36,1,14,11.040999999999991,20,56,86,91,13,85,12.62699999999999,2.1349999999999985,0.244,2.0739999999999985,20,5,1,9,63,7,1,12,3,0.5,24,3.75,6,L,0.20042857142857143,0.305,0.244,0.17283333333333334
10,1,1,0,5,10.979999999999992,19,48,37,18,79,115,11.101999999999991,5.916999999999995,7.807999999999994,0.9759999999999995,20,15,17,5,50,30,38,5,5,0,16,4,6,L,0.22204,0.19723333333333332,0.2054736842105263,0.19519999999999998
10,1,2,0,6,8.783999999999994,19,44,1,11,9,92,13.541999999999991,2.1349999999999985,0.7319999999999998,0.427,20,8,4,3,66,9,4,3,6,0.5,39,5.25,6,L,0.20518181818181816,0.2372222222222222,0.183,0.14233333333333334
10,2,3,0,5,10.308999999999992,18,53,42,10,43,95,10.369999999999992,1.7079999999999989,0.366,2.622999999999998,19,4,3,6,54,4,3,9,5,0,19,4.75,6,L,0.19203703703703703,0.4269999999999999,0.122,0.2914444444444444
10,2,4,0,1,10.613999999999992,18,44,77,81,78,100,11.77299999999999,1.0369999999999995,2.683999999999998,2.0129999999999986,20,7,10,6,49,8,11,9,3,0.5,20,2.75,6,L,0.24026530612244895,0.129625,0.244,0.22366666666666662
10,3,5,0,9,8.234999999999994,18,44,62,25,61,63,9.027999999999993,3.2329999999999974,0.061,0.6709999999999998,20,9,1,4,50,12,1,4,4,0.5,29,4.25,6,L,0.18056,0.26941666666666664,0.061,0.16775
10,3,6,0,2,17.872999999999987,15,75,112,119,49,96,45.810999999999964,1.2199999999999993,0.9759999999999995,7.197999999999994,20,7,6,13,176,7,8,27,4,0,11,2.75,6,L,0.26028977272727266,0.17428571428571427,0.122,0.2665925925925926
10,4,7,0,8,13.05399999999999,19,65,112,65,18,14,17.262999999999987,2.805999999999998,2.1349999999999985,1.646999999999999,20,9,5,9,81,10,6,10,2,0,18,4.5,6,L,0.21312345679012343,0.28059999999999996,0.3558333333333332,0.16469999999999999
10,4,8,0,4,7.990999999999993,19,49,7,97,8,88,18.604999999999986,0.9759999999999995,0.8539999999999996,0.061,20,5,2,1,83,6,2,1,2,0,17,4.25,6,L,0.22415662650602408,0.16266666666666665,0.427,0.061
10,5,9,0,2,14.273999999999988,18,57,58,87,16,21,18.848999999999986,0.061,5.306999999999996,0.6099999999999999,20,1,12,2,74,1,22,2,4,0,19,4.75,6,L,0.2547162162162162,0.061,0.24122727272727268,0.30499999999999994
10,5,10,0,8,8.539999999999994,17,42,112,113,109,12,9.820999999999993,1.0369999999999995,0.366,3.1719999999999975,20,4,3,10,46,5,3,14,2,0.5,18,3,6,L,0.21349999999999997,0.2074,0.122,0.2265714285714285
10,6,11,1,2,13.968999999999989,15,61,102,52,2,57,16.713999999999988,1.2809999999999993,3.3549999999999973,2.561999999999998,20,5,12,11,71,6,17,15,4,0,16,4,6,L,0.23540845070422534,0.21349999999999994,0.19735294117647056,0.1708
10,6,12,1,11,12.38299999999999,19,62,72,85,68,20,15.432999999999987,0.5489999999999999,2.805999999999998,1.585999999999999,20,2,13,6,75,2,16,6,4,0,17,4.25,6,L,0.20577333333333334,0.27449999999999997,0.175375,0.2643333333333333
10,7,13,1,14,13.968999999999989,14,59,87,57,6,89,14.090999999999989,5.001999999999996,0.244,0.183,15,10,1,1,60,16,1,1,3,0,16,4,6,L,0.23484999999999998,0.31262499999999993,0.244,0.183
10,7,14,1,13,8.295999999999994,16,40,111,115,116,33,15.18899999999999,0.5489999999999999,6.465999999999995,2.8669999999999978,20,5,13,12,64,5,25,15,2,0.5,17,2.75,6,L,0.23732812499999997,0.1098,0.2586399999999999,0.19113333333333332
10,8,15,1,1,8.356999999999994,19,49,82,75,112,14,10.247999999999992,3.537999999999997,1.0979999999999994,0.183,20,13,7,1,53,24,8,1,3,0,14,3.5,6,L,0.1933584905660377,0.14741666666666667,0.13724999999999998,0.183
10,8,16,1,7,9.027999999999993,17,48,2,12,41,86,10.857999999999992,0.7319999999999998,5.672999999999996,1.2809999999999993,20,4,14,5,54,4,21,6,6,0,20,5,6,L,0.20107407407407407,0.183,0.27014285714285713,0.2135
10,9,17,1,2,12.01699999999999,20,65,60,18,90,13,14.639999999999988,1.1589999999999994,1.3419999999999992,2.0129999999999986,20,4,4,9,79,5,6,13,4,0,19,4.75,6,L,0.18531645569620253,0.2318,0.22366666666666662,0.15484615384615386
10,9,18,1,1,8.844999999999994,16,37,74,8,112,82,12.19999999999999,1.1589999999999994,0.122,0.7929999999999997,20,5,1,5,52,6,1,5,3,0,14,3.5,6,L,0.23461538461538461,0.19316666666666665,0.122,0.1586
10,10,19,1,14,8.173999999999994,17,43,45,18,88,116,15.37199999999999,16.04299999999999,0.6099999999999999,2.500999999999998,20,18,4,11,77,60,4,15,3,0,16,4,6,L,0.19963636363636364,0.2673833333333333,0.1525,0.16673333333333332
10,10,20,1,11,12.19999999999999,19,61,65,72,2,10,12.26099999999999,3.4159999999999973,1.646999999999999,0.9759999999999995,20,12,9,3,62,16,9,5,4,0,20,5,6,L,0.197758064516129,0.21349999999999997,0.183,0.19519999999999998
10,11,21,1,8,10.064999999999992,12,46,104,9,100,101,16.04299999999999,3.9649999999999967,7.502999999999994,4.269999999999997,20,10,17,10,80,15,32,17,2,0.5,18,3,6,L,0.20053749999999998,0.2643333333333333,0.23446874999999998,0.2511764705882353
10,11,22,1,15,11.89499999999999,16,56,14,22,114,43,12.01699999999999,4.025999999999997,1.8909999999999987,0.366,17,13,5,3,57,21,6,3,6,0,19,4.75,6,L,0.21082456140350875,0.1917142857142857,0.31516666666666654,0.122
10,12,23,1,15,7.990999999999993,14,37,22,15,16,66,10.125999999999992,3.2939999999999974,1.8909999999999987,1.646999999999999,20,10,7,9,47,11,9,10,6,0.5,40,5.5,6,L,0.2154468085106383,0.29945454545454536,0.2101111111111111,0.16469999999999999
10,12,24,1,2,8.783999999999994,20,43,51,39,12,49,9.210999999999993,7.624999999999994,1.1589999999999994,0.5489999999999999,20,16,4,4,47,34,4,4,4,0,19,4.75,6,L,0.19597872340425532,0.22426470588235292,0.28975,0.13724999999999998
10,13,25,1,2,6.465999999999995,14,40,6,51,8,58,7.8079999999999945,0.061,3.476999999999997,0.9149999999999996,19,1,10,3,45,1,11,3,4,0,20,5,6,L,0.17351111111111112,0.061,0.3160909090909091,0.30499999999999994
10,13,26,1,3,9.576999999999993,17,42,28,111,25,113,9.637999999999993,1.1589999999999994,1.1589999999999994,1.0979999999999994,18,3,5,4,43,5,5,5,5,0,14,3.5,6,L,0.2241395348837209,0.23179999999999998,0.2318,0.2196
10,14,27,1,11,9.698999999999993,19,54,62,71,67,10,10.552999999999992,0.8539999999999996,1.0369999999999995,2.3179999999999983,20,2,5,5,56,2,5,7,4,0.5,30,4.5,6,L,0.18844642857142857,0.4269999999999998,0.2074,0.33114285714285707
10,14,28,1,2,9.820999999999993,18,48,73,106,41,59,12.62699999999999,1.0979999999999994,2.0129999999999986,0.061,20,1,5,1,59,1,6,1,4,0,14,3.5,6,L,0.21401694915254238,1.0979999999999994,0.3354999999999999,0.061
10,15,29,1,15,9.149999999999993,18,53,18,14,24,87,10.796999999999992,2.3179999999999983,0.9149999999999996,2.805999999999998,20,8,4,9,60,13,4,11,6,0.5,39,5.25,6,L,0.17995,0.1783076923076923,0.22874999999999998,0.2550909090909091
10,15,30,1,12,11.406999999999991,19,56,104,47,37,99,13.785999999999989,0.244,0.366,6.099999999999995,20,2,2,15,66,2,2,26,5,0,14,3.5,6,L,0.20887878787878786,0.122,0.183,0.2346153846153846
10,16,31,1,11,7.624999999999994,17,41,71,70,41,99,9.881999999999993,2.3789999999999982,10.857999999999992,0.061,20,8,17,1,52,10,47,1,4,0,15,3.75,6,L,0.19003846153846154,0.2379,0.23102127659574465,0.061
10,16,32,1,3,14.029999999999989,15,63,28,120,58,6,15.432999999999987,2.0739999999999985,4.086999999999997,2.3789999999999982,20,9,13,6,70,12,18,11,5,0,17,4.25,6,L,0.22047142857142857,0.17283333333333334,0.22705555555555554,0.21627272727272726
10,17,33,1,13,6.526999999999995,16,39,111,118,45,53,7.746999999999995,0.244,2.0129999999999986,2.1349999999999985,20,2,5,10,50,2,5,13,2,0,13,3.25,6,L,0.15494,0.122,0.4025999999999999,0.16423076923076924
10,17,34,1,14,15.371999999999987,16,65,108,90,66,34,17.140999999999988,2.3789999999999982,1.2199999999999993,2.683999999999998,20,10,4,8,72,12,4,10,3,0,14,3.5,6,L,0.23806944444444442,0.19824999999999998,0.305,0.26839999999999997
10,18,35,1,15,14.639999999999988,18,79,45,86,99,42,18.116999999999987,2.805999999999998,0.6709999999999998,2.3789999999999982,20,10,2,10,97,12,2,12,6,0,15,3.75,6,L,0.18677319587628866,0.23383333333333334,0.3355,0.19824999999999998
10,18,36,1,7,12.80999999999999,19,66,2,34,28,80,12.87099999999999,1.8299999999999987,2.500999999999998,0.8539999999999996,20,4,6,2,67,5,8,2,6,0,19,4.75,6,L,0.1921044776119403,0.36599999999999994,0.312625,0.4269999999999999
11,1,1,0,10,11.345999999999991,16,60,85,94,10,54,11.650999999999991,0.7319999999999998,1.8909999999999987,2.0129999999999986,19,5,6,9,63,5,7,11,3,0,16,4,6,L,0.18493650793650793,0.1464,0.27014285714285713,0.183
11,1,2,0,9,10.796999999999992,15,43,65,62,68,35,10.918999999999992,1.0979999999999994,1.2199999999999993,1.7079999999999989,16,5,5,5,44,6,6,5,4,0.5,29,4.25,6,L,0.24815909090909088,0.183,0.20333333333333334,0.34159999999999996
11,2,3,0,5,7.746999999999994,17,40,95,45,48,104,10.552999999999992,0.488,1.8299999999999987,0.183,20,4,6,1,49,5,9,1,5,0,15,3.75,6,L,0.2153673469387755,0.09759999999999999,0.20333333333333334,0.183
11,2,4,0,6,7.319999999999994,14,41,4,10,6,11,7.380999999999994,6.587999999999995,2.0739999999999985,1.0979999999999994,15,14,8,4,42,25,8,4,6,1,72,6,6,L,0.17573809523809522,0.26352,0.25925,0.27449999999999997
11,3,5,0,5,6.526999999999995,13,42,37,40,72,44,6.953999999999994,3.0499999999999976,5.916999999999995,1.7079999999999989,16,10,12,6,45,15,17,6,5,0.5,34,4.75,6,L,0.15453333333333333,0.20333333333333334,0.3480588235294117,0.2846666666666667
11,3,6,0,1,11.589999999999991,20,63,73,76,81,102,13.35899999999999,1.646999999999999,1.2809999999999993,0.366,20,6,6,3,69,7,6,3,3,0.5,20,2.75,6,L,0.1936086956521739,0.23528571428571426,0.2135,0.122
11,4,7,0,5,8.905999999999993,14,41,39,48,38,45,9.515999999999993,2.683999999999998,2.9279999999999977,12.19999999999999,18,11,9,16,45,15,14,46,5,1,60,5,6,L,0.21146666666666666,0.17893333333333333,0.20914285714285713,0.2652173913043478
11,4,8,0,8,8.417999999999994,19,49,110,112,30,20,8.905999999999993,7.014999999999994,4.818999999999996,0.6099999999999999,20,15,14,3,52,26,16,5,2,0,15,3.75,6,L,0.17126923076923076,0.26980769230769225,0.30118749999999994,0.122
11,5,9,0,9,17.506999999999987,15,86,70,66,62,42,19.824999999999985,1.0979999999999994,3.659999999999997,1.4029999999999991,20,5,7,7,96,5,15,8,4,0.5,29,4.25,6,L,0.20651041666666664,0.2196,0.24399999999999997,0.175375
11,5,10,0,1,11.83399999999999,18,63,81,30,19,105,13.05399999999999,4.879999999999996,6.8319999999999945,0.061,20,10,15,1,72,16,35,1,3,0,16,4,6,L,0.18130555555555555,0.305,0.19519999999999998,0.061
11,6,11,1,12,15.005999999999988,18,57,116,44,37,3,17.994999999999987,0.6709999999999998,0.427,2.439999999999998,20,4,4,8,71,4,4,10,5,0,18,4.5,6,L,0.2534507042253521,0.16775,0.10675,0.244
11,6,12,1,3,9.820999999999993,14,46,30,31,27,49,10.003999999999992,0.8539999999999996,0.427,2.9889999999999977,16,4,3,10,48,4,3,14,5,0.5,34,4.75,6,L,0.20841666666666667,0.2135,0.14233333333333334,0.21349999999999997
11,7,13,1,3,13.23699999999999,17,57,30,28,100,31,13.54199999999999,0.061,0.9759999999999995,0.7319999999999998,20,1,1,5,60,1,1,5,5,0.5,32,4.25,6,L,0.22569999999999998,0.061,0.9759999999999995,0.1464
11,7,14,1,11,7.8689999999999936,17,39,61,64,119,23,10.796999999999992,0.9149999999999996,3.2939999999999974,0.9759999999999995,20,3,12,5,46,4,13,6,4,0,16,4,6,L,0.23471739130434782,0.22875,0.2533846153846154,0.16266666666666665
11,8,15,1,14,13.11499999999999,16,55,86,42,13,107,13.785999999999989,4.818999999999996,10.613999999999992,2.744999999999998,20,13,15,8,60,17,37,10,3,0,16,4,6,L,0.22976666666666665,0.2834705882352941,0.2868648648648648,0.27449999999999997
11,8,16,1,3,15.005999999999988,19,60,3,52,78,1,16.22599999999999,7.258999999999994,2.3789999999999982,15.249999999999988,20,15,14,16,63,29,17,57,5,0,19,4.75,6,L,0.2575555555555555,0.2503103448275862,0.13994117647058824,0.26754385964912275
11,9,17,1,15,12.56599999999999,18,63,14,20,76,41,12.62699999999999,0.5489999999999999,9.210999999999993,0.7929999999999997,19,4,15,2,64,4,37,2,6,0,20,5,6,L,0.19729687499999998,0.13724999999999998,0.2489459459459459,0.3964999999999999
11,9,18,1,14,13.663999999999989,20,68,87,94,119,86,16.774999999999988,0.6709999999999998,1.8299999999999987,0.6099999999999999,20,3,8,2,82,4,8,2,3,0.5,20,2.75,6,L,0.2045731707317073,0.16775,0.22874999999999998,0.305
11,10,19,1,15,7.014999999999994,15,37,18,74,120,20,7.136999999999994,6.038999999999995,4.513999999999997,3.842999999999997,16,14,14,14,38,25,22,20,6,0,17,4.25,6,L,0.1878157894736842,0.24155999999999997,0.20518181818181816,0.19215
11,10,20,1,12,18.665999999999986,11,75,46,11,44,39,20.007999999999985,1.7689999999999988,0.183,0.061,18,6,1,1,82,8,1,1,5,0.5,36,5.25,6,L,0.24399999999999997,0.221125,0.183,0.061
11,11,21,1,8,12.38299999999999,20,67,102,75,44,19,15.859999999999987,1.7689999999999988,0.122,0.9149999999999996,20,6,1,3,81,6,1,4,2,0,16,4,6,L,0.19580246913580246,0.29483333333333334,0.122,0.22874999999999998
11,11,22,1,7,9.149999999999993,16,47,9,89,54,3,17.384999999999987,2.3179999999999983,0.427,0.244,20,7,5,2,80,7,5,2,6,0,19,4.75,6,L,0.21731249999999996,0.33114285714285707,0.0854,0.122
11,12,23,1,3,17.994999999999987,18,85,32,18,14,94,22.203999999999983,4.330999999999997,4.879999999999996,0.305,20,11,15,2,108,16,26,2,5,0,20,5,6,L,0.20559259259259258,0.27068749999999997,0.18769230769230769,0.1525
11,12,24,1,7,17.079999999999988,19,68,2,68,72,10,17.140999999999988,0.7319999999999998,1.8299999999999987,0.427,20,2,4,2,69,2,7,2,6,0,20,5,6,L,0.24842028985507245,0.3659999999999999,0.2614285714285714,0.2135
11,13,25,1,14,14.517999999999988,19,74,18,96,107,92,18.177999999999987,9.698999999999993,1.8299999999999987,0.061,20,17,4,1,90,35,4,1,3,0,14,3.5,6,L,0.20197777777777776,0.2771142857142857,0.45749999999999985,0.061
11,13,26,1,2,4.574999999999997,15,31,49,29,57,5,6.282999999999996,1.7689999999999988,0.244,0.9759999999999995,20,7,2,3,40,10,2,3,4,0,19,4.75,6,L,0.157075,0.1769,0.122,0.3253333333333333
11,14,27,1,13,12.32199999999999,17,60,119,114,76,6,13.11499999999999,2.1349999999999985,2.622999999999998,0.5489999999999999,20,7,6,3,64,8,14,3,2,0,13,3.25,6,L,0.204921875,0.2668749999999999,0.18735714285714286,0.183
11,14,28,1,11,9.942999999999993,20,62,67,62,87,70,10.735999999999992,1.2199999999999993,4.452999999999997,2.500999999999998,20,5,11,11,66,7,13,13,4,0.5,27,3.75,6,L,0.16266666666666665,0.17428571428571427,0.34253846153846146,0.19238461538461538
11,15,29,1,1,8.356999999999994,17,45,11,78,9,2,12.870999999999992,3.2939999999999974,5.367999999999996,11.83399999999999,20,10,17,16,57,10,25,55,3,0.5,39,5.25,6,L,0.22580701754385962,0.3293999999999999,0.21471999999999997,0.21516363636363633
11,15,30,1,11,10.552999999999992,19,65,65,61,90,67,10.735999999999992,11.040999999999991,2.0129999999999986,0.061,20,15,7,1,67,36,10,1,4,0.5,27,3.75,6,L,0.16023880597014925,0.3066944444444444,0.20129999999999998,0.061
11,16,31,1,12,8.661999999999994,16,35,44,78,101,6,9.881999999999993,2.1959999999999984,4.025999999999997,0.6709999999999998,20,6,11,4,40,7,15,5,5,0,16,4,6,L,0.24704999999999996,0.31371428571428567,0.26839999999999997,0.13419999999999999
11,16,32,1,3,12.44399999999999,17,54,33,14,85,91,12.80999999999999,12.62699999999999,0.183,2.744999999999998,20,16,1,9,57,57,1,12,5,0,17,4.25,6,L,0.22473684210526315,0.22152631578947365,0.183,0.22874999999999998
11,17,33,1,2,5.489999999999996,13,21,14,60,82,15,7.441999999999995,0.061,5.062999999999996,3.903999999999997,20,1,12,12,30,1,15,15,4,0,19,4.75,6,L,0.24806666666666666,0.061,0.33753333333333324,0.26026666666666665
11,17,34,1,7,7.136999999999994,13,33,4,7,10,11,8.356999999999994,2.561999999999998,0.488,0.427,18,8,4,3,38,11,4,3,6,1,72,6,6,L,0.21992105263157893,0.23290909090909087,0.122,0.14233333333333334
11,18,35,1,1,6.404999999999995,17,35,79,74,24,45,9.393999999999993,0.488,1.8299999999999987,3.720999999999997,20,4,8,11,52,4,10,15,3,0,17,4.25,6,L,0.18065384615384614,0.122,0.183,0.24806666666666663
11,18,36,1,3,8.478999999999994,13,49,28,4,5,1,9.942999999999993,1.0979999999999994,0.7319999999999998,12.44399999999999,20,4,3,16,56,4,3,54,5,0.5,41,5.75,6,L,0.17755357142857142,0.27449999999999997,0.244,0.23044444444444442
12,1,1,0,1,6.343999999999995,14,33,84,14,28,19,6.709999999999995,7.075999999999994,0.427,0.244,15,11,4,1,34,17,4,1,3,0,20,5,7,L,0.19735294117647056,0.416235294117647,0.10675,0.244
12,1,2,0,5,7.9299999999999935,19,39,96,3,11,44,11.650999999999991,2.9279999999999977,5.977999999999995,0.122,20,6,15,1,52,9,27,1,5,0,20,5,7,L,0.2240576923076923,0.3253333333333333,0.22140740740740739,0.122
12,2,3,0,6,10.735999999999992,15,54,6,1,98,89,10.796999999999992,6.587999999999995,0.5489999999999999,0.5489999999999999,16,15,2,2,55,24,2,2,6,0,17,4.25,7,L,0.1963090909090909,0.27449999999999997,0.27449999999999997,0.27449999999999997
12,2,4,0,7,8.966999999999993,17,38,13,18,82,59,11.83399999999999,1.524999999999999,0.8539999999999996,3.476999999999997,20,8,2,11,53,8,2,14,6,0,19,4.75,7,L,0.2232830188679245,0.19062499999999996,0.4269999999999999,0.2483571428571428
12,3,5,0,2,13.602999999999989,18,71,54,50,58,17,13.968999999999989,1.0369999999999995,2.0129999999999986,5.184999999999996,19,6,10,14,72,7,10,27,4,0.5,30,4.5,7,L,0.19401388888888887,0.14814285714285713,0.2013,0.192037037037037
12,3,6,0,9,12.26099999999999,19,58,66,32,26,35,13.29799999999999,0.8539999999999996,5.245999999999996,0.6709999999999998,20,1,12,2,67,2,19,2,4,0.5,34,4.75,7,L,0.1984776119402985,0.42699999999999994,0.27610526315789474,0.3354999999999999
12,4,7,0,4,11.284999999999991,18,43,103,13,18,84,13.23699999999999,4.269999999999997,0.7319999999999998,0.244,20,12,2,1,48,17,2,1,2,0,17,4.25,7,L,0.27577083333333324,0.2511764705882353,0.366,0.244
12,4,8,0,9,11.83399999999999,18,59,64,67,4,118,12.07799999999999,1.0979999999999994,4.452999999999997,0.9759999999999995,19,5,14,3,60,7,21,3,4,0,16,4,7,L,0.20129999999999998,0.15685714285714286,0.21204761904761904,0.3253333333333333
12,5,9,0,3,7.9299999999999935,18,34,26,31,30,97,8.234999999999994,0.9149999999999996,0.122,2.2569999999999983,20,6,1,5,37,7,1,9,5,0.5,32,4.25,7,L,0.22256756756756754,0.1307142857142857,0.122,0.25077777777777777
12,5,10,0,5,5.977999999999995,15,24,47,13,19,37,7.197999999999995,4.574999999999997,0.122,0.6709999999999998,20,12,1,5,31,16,1,5,5,0,22,5.5,7,L,0.23219354838709677,0.28593749999999996,0.122,0.13419999999999999
12,6,11,0,9,10.064999999999992,17,44,66,71,67,116,12.99299999999999,1.524999999999999,0.244,0.183,20,7,3,1,55,8,3,1,4,0.5,26,3.5,7,L,0.23623636363636363,0.190625,0.08133333333333333,0.183
12,6,12,0,4,16.957999999999988,20,84,100,103,10,39,17.933999999999987,0.6099999999999999,0.7319999999999998,0.7319999999999998,20,3,2,2,90,3,3,2,2,0,15,3.75,7,L,0.19926666666666665,0.20333333333333334,0.244,0.3659999999999999
12,7,13,1,11,8.478999999999994,18,43,62,63,21,14,9.454999999999993,0.5489999999999999,2.3789999999999982,2.744999999999998,20,3,7,8,45,3,10,10,4,0,20,5,7,L,0.21011111111111108,0.183,0.2379,0.27449999999999997
12,7,14,1,3,10.064999999999992,17,43,1,9,30,73,11.101999999999991,2.9889999999999977,4.086999999999997,0.305,18,7,8,4,44,8,14,4,5,0,20,5,7,L,0.2523181818181818,0.37362499999999993,0.29192857142857137,0.07625
12,8,15,1,1,24.52199999999998,16,105,79,76,82,6,24.64399999999998,0.488,2.0129999999999986,3.720999999999997,17,2,8,10,106,2,10,17,3,0.5,24,3.75,7,L,0.23249056603773582,0.244,0.20129999999999998,0.21888235294117647
12,8,16,1,15,10.430999999999992,17,47,24,47,90,61,14.57899999999999,2.2569999999999983,2.500999999999998,0.488,20,9,9,4,77,12,15,4,6,0,18,4.5,7,L,0.18933766233766233,0.18808333333333332,0.16673333333333332,0.122
12,9,17,1,13,10.186999999999992,20,52,118,44,86,45,16.957999999999988,3.476999999999997,1.4029999999999991,0.8539999999999996,20,8,4,4,81,9,4,5,2,0,15,3.75,7,L,0.209358024691358,0.3863333333333333,0.35074999999999984,0.1708
12,9,18,1,11,21.715999999999983,20,101,20,70,19,62,22.447999999999983,2.1959999999999984,3.2329999999999974,0.061,20,8,8,1,107,10,11,1,4,0,20,5,7,L,0.20979439252336446,0.2196,0.29390909090909084,0.061
12,10,19,1,7,14.822999999999988,16,75,8,78,3,65,15.188999999999988,5.367999999999996,1.4029999999999991,7.807999999999994,20,11,5,15,79,22,7,36,6,0,19,4.75,7,L,0.1922658227848101,0.24399999999999997,0.20042857142857143,0.21688888888888885
12,10,20,1,3,15.310999999999988,18,68,32,29,31,35,15.493999999999987,1.463999999999999,1.463999999999999,1.7079999999999989,19,5,6,8,69,6,7,10,5,1,60,5,7,L,0.22455072463768114,0.24399999999999997,0.20914285714285713,0.1708
12,11,21,1,3,5.550999999999996,12,27,73,9,115,79,10.369999999999992,6.099999999999995,2.3789999999999982,0.122,20,15,4,2,46,25,5,2,5,0,14,3.5,7,L,0.22543478260869562,0.24399999999999994,0.4757999999999999,0.061
12,11,22,1,11,15.615999999999987,20,82,63,20,70,15,18.299999999999986,1.2809999999999993,6.160999999999995,0.9759999999999995,20,5,13,6,98,5,27,6,4,0,20,5,7,L,0.186734693877551,0.25619999999999993,0.22818518518518516,0.16266666666666665
12,12,23,1,7,7.075999999999994,17,38,1,8,39,9,12.99299999999999,1.3419999999999992,2.1959999999999984,0.427,20,6,7,2,64,7,8,2,6,0.5,41,5.75,7,L,0.20301562499999998,0.1917142857142857,0.27449999999999997,0.2135
12,12,24,1,3,8.905999999999993,17,46,25,34,116,24,9.332999999999993,0.488,2.622999999999998,1.2809999999999993,20,3,9,4,50,3,11,4,5,0,18,4.5,7,L,0.18666,0.16266666666666665,0.23845454545454542,0.32025
12,13,25,1,2,11.040999999999991,18,50,114,17,22,24,16.896999999999988,0.7319999999999998,1.463999999999999,3.3549999999999973,20,3,7,7,75,3,7,12,4,0.5,38,5,7,L,0.22529333333333332,0.24399999999999997,0.20914285714285713,0.2795833333333333
12,13,26,1,3,7.258999999999994,18,40,32,26,3,30,9.393999999999993,0.488,1.8909999999999987,8.356999999999994,20,4,8,15,47,4,9,32,5,0.5,36,5.25,7,L,0.1998723404255319,0.122,0.21011111111111108,0.26115625
12,14,27,1,13,11.162999999999991,19,53,111,114,112,24,11.650999999999991,8.600999999999994,1.3419999999999992,0.7929999999999997,20,17,5,5,55,33,5,5,2,0.5,18,3,7,L,0.21183636363636363,0.2606363636363636,0.26839999999999997,0.1586
12,14,28,1,14,14.517999999999988,19,80,93,95,86,101,15.798999999999987,0.305,1.524999999999999,3.781999999999997,20,2,6,10,86,2,7,18,3,0.5,20,2.75,7,L,0.1837093023255814,0.1525,0.21785714285714283,0.2101111111111111
12,15,29,1,13,10.003999999999992,18,48,116,113,90,24,13.785999999999989,0.061,1.1589999999999994,3.2329999999999974,20,1,3,12,71,1,4,16,2,0,13,3.25,7,L,0.194169014084507,0.061,0.28975,0.20206249999999998
12,15,30,1,7,5.672999999999996,12,26,4,7,5,69,5.916999999999995,0.6099999999999999,10.430999999999992,1.8299999999999987,15,2,15,8,29,2,47,9,6,0.5,40,5.5,7,L,0.20403448275862068,0.305,0.22193617021276593,0.2033333333333333
12,16,31,1,3,9.942999999999993,16,49,26,33,34,103,12.99299999999999,0.9149999999999996,2.805999999999998,3.598999999999997,20,5,5,10,60,5,7,15,5,0.5,32,4.25,7,L,0.21654999999999996,0.183,0.4008571428571427,0.2399333333333333
12,16,32,1,14,8.173999999999994,15,37,44,90,93,86,11.101999999999991,0.061,0.305,0.061,19,1,2,1,44,1,2,1,3,0.5,23,3.5,7,L,0.2523181818181818,0.061,0.1525,0.061
12,17,33,1,3,5.916999999999995,17,32,15,34,22,102,19.275999999999986,0.122,0.305,1.463999999999999,20,1,2,5,92,1,2,5,5,0,19,4.75,7,L,0.2095217391304348,0.122,0.1525,0.29279999999999995
12,17,34,1,7,11.71199999999999,16,58,10,116,11,8,14.822999999999988,4.147999999999997,0.366,2.805999999999998,20,11,3,7,68,21,3,12,6,0.5,38,5,7,L,0.21798529411764703,0.19752380952380952,0.122,0.23383333333333334
12,18,35,1,2,4.940999999999996,14,26,1,114,59,87,24.94899999999998,6.709999999999995,0.8539999999999996,0.061,20,15,5,1,101,31,5,1,4,0,15,3.75,7,L,0.247019801980198,0.2164516129032258,0.1708,0.061
12,18,36,1,8,10.430999999999992,18,52,103,13,76,67,10.491999999999992,13.907999999999989,3.842999999999997,1.7689999999999988,19,18,11,9,53,50,14,11,2,0,15,3.75,7,L,0.19796226415094337,0.27815999999999996,0.27449999999999997,0.1608181818181818
13,1,1,0,9,14.822999999999988,18,56,71,70,63,21,15.188999999999988,1.1589999999999994,0.366,3.4159999999999973,20,10,2,9,58,10,2,14,4,0.5,30,4.5,6,L,0.26187931034482753,0.1159,0.183,0.24399999999999997
13,1,2,0,6,8.905999999999993,17,47,52,2,5,89,10.979999999999992,0.5489999999999999,0.8539999999999996,8.722999999999994,20,5,2,14,55,5,2,32,6,0,19,4.75,6,L,0.1996363636363636,0.1098,0.4269999999999998,0.27259374999999997
13,2,3,0,10,14.517999999999988,19,65,8,94,1,120,15.981999999999987,1.585999999999999,2.3179999999999983,0.427,20,4,6,2,67,4,8,2,3,0,17,4.25,6,L,0.2385373134328358,0.39649999999999996,0.28974999999999995,0.2135
13,2,4,0,7,9.698999999999993,19,52,15,80,31,99,10.979999999999992,3.842999999999997,0.366,1.7079999999999989,20,12,3,6,60,18,3,7,6,0,16,4,6,L,0.183,0.2135,0.122,0.24399999999999997
13,3,5,0,2,10.430999999999992,19,59,49,3,55,53,13.29799999999999,5.123999999999996,0.061,0.061,20,12,1,1,74,20,1,1,4,0.5,30,4.5,6,L,0.1797027027027027,0.2562,0.061,0.061
13,3,6,0,7,9.088999999999993,13,40,13,26,97,104,9.759999999999993,7.014999999999994,0.6099999999999999,2.1349999999999985,14,12,2,7,42,23,2,9,6,0,15,3.75,6,L,0.23238095238095235,0.305,0.305,0.23722222222222222
13,4,7,0,5,7.197999999999994,17,42,44,108,89,105,8.905999999999993,10.735999999999992,0.6709999999999998,0.061,20,18,2,1,51,53,2,1,5,0,12,3,6,L,0.17462745098039215,0.20256603773584902,0.3354999999999999,0.061
13,4,8,0,9,10.552999999999992,18,47,63,68,70,72,11.223999999999991,0.305,0.427,4.452999999999997,20,3,4,13,50,3,4,21,4,1,48,4,6,L,0.22447999999999999,0.10166666666666667,0.10675,0.21204761904761904
13,5,9,0,9,7.9299999999999935,16,42,66,71,112,68,9.637999999999993,1.463999999999999,1.3419999999999992,2.1959999999999984,20,4,4,9,47,4,4,14,4,0.5,26,3.5,6,L,0.20506382978723403,0.3659999999999999,0.3355,0.15685714285714286
13,5,10,0,6,8.722999999999994,16,54,4,6,46,44,12.62699999999999,1.1589999999999994,0.9149999999999996,2.622999999999998,20,6,3,9,68,8,4,13,6,0,22,5.5,6,L,0.18569117647058822,0.144875,0.22875,0.20176923076923076
13,6,11,1,7,4.818999999999996,15,25,3,57,85,51,6.465999999999996,6.953999999999994,3.1109999999999975,1.8909999999999987,20,16,11,6,36,26,14,7,6,0,17,4.25,6,L,0.1796111111111111,0.2674615384615384,0.2222142857142857,0.27014285714285713
13,6,12,1,1,9.088999999999993,16,48,73,78,118,117,12.38299999999999,1.2809999999999993,3.2939999999999974,1.4029999999999991,20,6,9,6,64,6,14,7,3,0,10,2.5,6,L,0.193484375,0.2135,0.2352857142857143,0.20042857142857143
13,7,13,1,12,9.942999999999993,19,52,43,58,4,45,13.17599999999999,0.6099999999999999,3.2939999999999974,2.1349999999999985,20,3,11,8,67,3,18,15,5,0,20,5,6,L,0.19665671641791044,0.20333333333333334,0.183,0.14233333333333334
13,7,14,1,3,7.014999999999994,16,33,31,30,28,16,8.234999999999994,0.427,2.1349999999999985,1.4029999999999991,20,3,11,5,38,3,12,6,5,0.5,36,5.25,6,L,0.21671052631578946,0.14233333333333334,0.17791666666666667,0.2338333333333333
13,8,15,1,3,14.639999999999988,12,62,34,27,53,12,15.981999999999987,7.624999999999994,3.1109999999999975,1.3419999999999992,19,12,9,5,70,25,10,5,5,0,20,5,6,L,0.2283142857142857,0.30499999999999994,0.31109999999999993,0.26839999999999997
13,8,16,1,15,12.32199999999999,19,68,16,18,19,102,15.920999999999987,1.2809999999999993,5.245999999999996,0.5489999999999999,20,5,14,4,83,6,20,4,6,0.5,38,5,6,L,0.19181927710843372,0.2135,0.2622999999999999,0.13724999999999998
13,9,17,1,3,10.369999999999992,18,48,29,27,5,26,11.77299999999999,0.305,2.2569999999999983,6.038999999999995,20,1,6,13,54,2,8,28,5,0.5,36,5.25,6,L,0.2180185185185185,0.1525,0.28212499999999996,0.21567857142857141
13,9,18,1,11,9.271999999999993,20,54,68,44,17,22,10.003999999999992,5.062999999999996,0.305,3.781999999999997,20,13,2,11,57,18,2,17,4,0,21,5.25,6,L,0.17550877192982456,0.28127777777777774,0.1525,0.2224705882352941
13,10,19,1,11,18.726999999999986,17,100,68,67,29,33,19.214999999999986,6.160999999999995,0.061,1.3419999999999992,20,15,1,3,106,24,1,3,4,0,18,4.5,6,L,0.18127358490566037,0.2567083333333333,0.061,0.44733333333333314
13,10,20,1,2,9.454999999999993,14,41,55,54,47,3,12.38299999999999,0.061,2.500999999999998,1.7689999999999988,20,1,9,6,61,1,10,7,4,0,19,4.75,6,L,0.20299999999999999,0.061,0.25009999999999993,0.25271428571428567
13,11,21,1,15,8.356999999999994,18,41,24,17,13,15,8.478999999999994,5.306999999999996,1.7079999999999989,0.9149999999999996,20,12,6,5,43,19,8,7,6,1,72,6,6,L,0.19718604651162788,0.27931578947368413,0.2135,0.1307142857142857
13,11,22,1,2,13.23699999999999,19,56,50,53,45,37,13.29799999999999,0.488,2.9279999999999977,2.0739999999999985,20,4,9,6,57,5,11,9,4,0,18,4.5,6,L,0.23329824561403506,0.09759999999999999,0.26618181818181813,0.23044444444444442
13,12,23,1,2,12.38299999999999,18,59,53,51,21,19,16.652999999999988,0.061,0.6709999999999998,1.585999999999999,20,1,1,6,75,1,2,10,4,0,20,5,6,L,0.22204,0.061,0.3355,0.1586
13,12,24,1,8,7.990999999999993,11,37,107,103,100,43,10.308999999999992,0.427,0.183,2.439999999999998,20,2,1,5,47,2,1,8,2,0.5,17,2.75,6,L,0.21934042553191488,0.2135,0.183,0.30499999999999994
13,13,25,1,7,8.295999999999994,14,48,1,47,103,4,8.600999999999994,6.099999999999995,1.7079999999999989,0.9759999999999995,17,13,6,4,51,23,9,4,6,0,19,4.75,6,L,0.1686470588235294,0.2652173913043478,0.18977777777777777,0.244
13,13,26,1,13,10.918999999999992,18,51,14,113,27,86,18.482999999999986,0.061,0.183,0.183,20,1,1,1,86,1,1,1,2,0,16,4,6,L,0.21491860465116278,0.061,0.183,0.183
