Subject,Round,Phase,afterbreak,Schema,Schema_RT,Schema_OB,Schema_AS,Cho_1,Cho_2,Cho_3,Cho_4,RT_1,RT_2,RT_3,RT_4,OB_1,OB_2,OB_3,OB_4,AS_1,AS_2,AS_3,AS_4,schema_payoff,AC,performance,payoff,breakR,type,dwellmean_1,dwellmean_2,dwellmean_3,dwellmean_4
1,1,1,0,1,15.554999999999987,16,72,84,81,78,112,16.28699999999999,1.0979999999999994,3.1109999999999975,20.373999999999985,18,4,9,17,74,5,14,88,3,0.5,20,2.75,6,L,0.22009459459459457,0.2196,0.2222142857142857,0.23152272727272724
1,1,2,0,5,25.25399999999998,20,114,44,43,39,20,26.35199999999998,0.122,0.183,3.1109999999999975,20,1,1,6,119,1,1,14,5,0.5,36,5.25,6,L,0.2214453781512605,0.122,0.183,0.2222142857142857
1,2,3,0,5,24.76599999999998,19,99,38,45,2,99,25.43699999999998,0.7319999999999998,7.197999999999994,0.7929999999999997,20,4,13,6,101,5,30,6,5,0,18,4.5,6,L,0.25185148514851485,0.1464,0.23993333333333333,0.13216666666666665
1,2,4,0,9,26.53499999999998,20,126,70,22,21,14,27.14499999999998,5.184999999999996,2.744999999999998,14.212999999999989,20,13,8,16,129,21,10,61,4,0.5,40,5.5,6,L,0.21042635658914727,0.24690476190476188,0.27449999999999997,0.23299999999999998
1,3,5,0,7,22.447999999999983,20,94,23,35,56,13,23.301999999999982,8.905999999999993,0.8539999999999996,1.646999999999999,20,16,6,3,99,36,6,4,6,0,21,5.25,6,L,0.23537373737373735,0.24738888888888885,0.14233333333333334,0.41174999999999984
1,3,6,0,4,23.48499999999998,20,126,102,92,106,6,24.09499999999998,4.818999999999996,2.439999999999998,6.404999999999995,20,11,11,16,129,19,12,34,2,0,13,3.25,6,L,0.1867829457364341,0.25363157894736843,0.20333333333333334,0.18838235294117647
1,4,7,0,5,9.881999999999993,17,60,41,48,45,4,13.23699999999999,1.3419999999999992,4.086999999999997,6.038999999999995,20,5,10,12,72,5,17,25,5,0.5,36,5.25,6,L,0.1838472222222222,0.2683999999999999,0.24041176470588232,0.24156
1,4,8,0,9,27.388999999999978,19,117,71,70,62,68,32.32999999999998,0.9759999999999995,2.3789999999999982,3.4159999999999973,20,4,10,13,140,4,12,17,4,1,48,4,6,L,0.23092857142857143,0.244,0.19824999999999998,0.20094117647058823
1,5,9,0,7,15.676999999999987,15,80,14,17,28,35,15.737999999999987,1.8909999999999987,10.674999999999992,0.061,16,8,16,1,81,9,41,1,6,0,22,5.5,6,L,0.19429629629629627,0.2101111111111111,0.26036585365853654,0.061
1,5,10,0,8,40.38199999999997,18,178,92,109,11,10,46.481999999999964,0.305,10.613999999999992,4.147999999999997,20,2,17,11,198,2,42,17,2,0,17,4.25,6,L,0.23475757575757572,0.1525,0.25271428571428567,0.24399999999999997
1,6,11,1,1,20.251999999999985,15,84,13,113,117,56,33.671999999999976,2.622999999999998,5.916999999999995,2.3789999999999982,20,6,14,11,136,7,25,13,3,0,14,3.5,6,L,0.2475882352941176,0.37471428571428567,0.23667999999999997,0.183
1,6,12,1,11,26.41299999999998,20,131,8,68,67,61,37.81999999999997,0.7319999999999998,0.244,1.2809999999999993,20,4,2,4,179,4,2,5,4,0.5,30,4.5,6,L,0.2112849162011173,0.183,0.122,0.2562
1,7,13,1,1,31.475999999999974,20,148,81,80,10,84,32.26899999999998,0.122,1.2199999999999993,1.585999999999999,20,1,2,9,151,1,2,11,3,0.5,24,3.75,6,L,0.21370198675496688,0.122,0.6099999999999998,0.1441818181818182
1,7,14,1,11,17.018999999999988,18,84,65,14,63,15,24.52199999999998,0.061,6.8319999999999945,1.4029999999999991,20,1,14,4,118,1,29,6,4,0,20,5,6,L,0.20781355932203388,0.061,0.2355862068965517,0.23383333333333334
1,8,15,1,11,18.543999999999986,19,82,68,72,71,66,20.373999999999985,1.2809999999999993,1.0369999999999995,2.683999999999998,20,6,3,11,88,6,3,12,4,1,48,4,6,L,0.23152272727272724,0.2135,0.3456666666666667,0.22366666666666665
1,8,16,1,12,19.092999999999986,19,86,43,59,47,38,22.935999999999982,2.0129999999999986,0.7319999999999998,3.9649999999999967,20,7,4,13,100,8,4,21,5,0.5,34,4.75,6,L,0.22935999999999998,0.251625,0.183,0.18880952380952382
1,9,17,1,15,29.157999999999976,15,134,15,16,72,113,29.218999999999976,5.489999999999996,1.585999999999999,0.122,16,13,6,1,135,20,8,1,6,0,18,4.5,6,L,0.21643703703703704,0.27449999999999997,0.19824999999999998,0.122
1,9,18,1,8,26.53499999999998,19,139,99,97,100,101,27.14499999999998,0.061,2.439999999999998,3.2939999999999974,20,1,7,12,141,1,11,17,2,1,24,2,6,L,0.19251773049645388,0.061,0.2218181818181818,0.19376470588235292
1,10,19,1,12,24.52199999999998,20,110,46,43,37,13,24.58299999999998,0.7319999999999998,1.2199999999999993,12.19999999999999,20,4,5,16,111,4,5,51,5,0.5,36,5.25,6,L,0.22146846846846846,0.183,0.244,0.2392156862745098
1,10,20,1,14,11.650999999999991,13,51,89,94,114,95,12.62699999999999,0.366,1.0979999999999994,0.061,18,1,2,1,56,2,3,1,3,0.5,20,2.75,6,L,0.22548214285714283,0.183,0.366,0.061
1,11,21,1,2,26.90099999999998,19,113,50,12,4,3,27.571999999999978,8.661999999999994,2.500999999999998,1.463999999999999,20,18,9,5,117,48,9,7,4,0.5,40,5.5,6,L,0.23565811965811964,0.18045833333333333,0.27788888888888885,0.20914285714285713
1,11,22,1,11,23.78999999999998,20,110,65,14,76,63,24.46099999999998,5.306999999999996,2.3789999999999982,0.061,20,12,4,1,114,19,5,1,4,0,17,4.25,6,L,0.21457017543859647,0.2793157894736842,0.4757999999999999,0.061
1,12,23,1,11,19.031999999999986,20,82,33,61,68,70,29.82899999999998,0.366,4.147999999999997,1.524999999999999,20,4,14,6,126,4,20,8,4,0.5,29,4.25,6,L,0.23673809523809522,0.0915,0.2074,0.190625
1,12,24,1,14,11.223999999999991,17,60,95,52,90,93,24.39999999999998,11.71199999999999,0.122,1.0369999999999995,20,19,2,3,115,48,2,4,3,0.5,22,3.25,6,L,0.21217391304347824,0.24399999999999997,0.061,0.25925
1,13,25,1,14,46.298999999999964,17,204,85,94,90,54,47.27499999999996,0.6709999999999998,1.2809999999999993,3.1719999999999975,20,3,6,11,209,3,6,17,3,0.5,22,3.25,6,L,0.2261961722488038,0.22366666666666665,0.21349999999999997,0.18658823529411764
1,13,26,1,11,34.159999999999975,14,149,63,67,66,17,34.220999999999975,0.8539999999999996,4.940999999999996,14.151999999999989,15,4,10,15,150,5,17,53,4,0.5,30,4.5,6,L,0.22813999999999998,0.17079999999999998,0.29064705882352937,0.2670188679245283
1,14,27,1,11,24.33899999999998,15,112,62,109,68,69,26.41299999999998,2.9889999999999977,7.624999999999994,7.807999999999994,20,10,14,14,120,15,29,26,4,0.5,26,3.5,6,L,0.22010833333333332,0.19926666666666668,0.26293103448275856,0.3003076923076923
1,14,28,1,8,38.67399999999997,20,191,101,108,84,46,38.91799999999997,1.1589999999999994,6.282999999999995,38.36899999999997,20,3,13,16,193,3,30,147,2,0,12,3,6,L,0.20164766839378237,0.3863333333333333,0.20943333333333333,0.26101360544217683
1,15,29,1,2,25.61999999999998,18,120,54,79,55,77,25.86399999999998,2.3179999999999983,0.122,3.537999999999997,19,8,1,10,121,8,1,15,4,0,14,3.5,6,L,0.21375206611570247,0.28974999999999995,0.122,0.23586666666666667
1,15,30,1,7,9.576999999999993,18,44,10,4,5,12,10.125999999999992,4.086999999999997,0.7929999999999997,2.0739999999999985,20,10,3,7,47,16,4,7,6,1,72,6,6,L,0.2154468085106383,0.2554375,0.19824999999999998,0.29628571428571426
1,16,31,1,15,17.567999999999987,18,73,21,20,18,23,19.153999999999986,3.2329999999999974,6.343999999999995,3.598999999999997,20,11,15,17,79,16,30,27,6,1,72,6,6,L,0.24245569620253163,0.2020625,0.21146666666666664,0.1332962962962963
1,16,32,1,12,22.874999999999982,9,98,44,48,45,114,22.996999999999982,2.0129999999999986,0.7319999999999998,6.648999999999995,11,8,4,14,100,9,4,25,5,0.5,32,4.25,6,L,0.22996999999999998,0.22366666666666665,0.183,0.26596
2,1,1,0,5,21.898999999999983,18,100,42,41,45,59,23.91199999999998,0.305,0.9759999999999995,1.524999999999999,20,2,6,5,108,2,6,7,5,0.5,34,4.75,6,L,0.22140740740740739,0.1525,0.16266666666666665,0.21785714285714286
2,1,2,0,9,23.362999999999982,20,117,69,70,67,62,24.46099999999998,0.9149999999999996,0.488,3.3549999999999973,20,6,3,8,121,6,3,11,4,1,48,4,6,L,0.20215702479338843,0.1525,0.16266666666666665,0.305
2,2,3,0,5,17.750999999999987,18,89,42,37,89,91,18.970999999999986,1.0369999999999995,4.7579999999999965,1.7689999999999988,20,4,12,5,93,6,23,6,5,0,16,4,6,L,0.20398924731182796,0.17283333333333334,0.2068695652173913,0.2948333333333333
2,2,4,0,7,35.684999999999974,19,160,14,19,16,15,35.745999999999974,0.427,0.122,12.50499999999999,20,2,1,15,161,3,1,54,6,1,72,6,6,L,0.22202484472049688,0.14233333333333334,0.122,0.23157407407407404
2,3,5,0,4,22.386999999999983,20,101,105,92,97,22,23.179999999999982,9.271999999999993,5.489999999999996,1.8909999999999987,20,16,13,6,106,36,21,7,2,0,13,3.25,6,L,0.21867924528301885,0.25755555555555554,0.2614285714285714,0.27014285714285713
2,3,6,0,8,18.543999999999986,19,103,113,117,120,76,20.190999999999985,0.122,4.147999999999997,1.8299999999999987,20,1,11,7,114,1,20,13,2,0.5,15,2.25,6,L,0.17711403508771928,0.122,0.20739999999999997,0.14076923076923076
2,4,7,0,1,21.410999999999984,18,94,75,79,83,3,24.15599999999998,3.3549999999999973,1.585999999999999,7.014999999999994,20,13,5,13,106,16,5,27,3,0.5,24,3.75,6,L,0.22788679245283017,0.2096875,0.3172,0.2598148148148148
2,4,8,0,8,10.735999999999992,14,63,120,13,117,114,12.38299999999999,26.47399999999998,0.061,0.366,20,19,1,2,74,112,1,2,2,0.5,18,3,6,L,0.16733783783783784,0.23637499999999997,0.061,0.183
2,5,9,0,2,26.22999999999998,19,118,52,54,59,55,26.35199999999998,0.6099999999999999,2.0739999999999985,4.879999999999996,20,3,11,15,120,3,16,27,4,1,48,4,6,L,0.2196,0.20333333333333334,0.129625,0.18074074074074073
2,5,10,0,5,49.10499999999996,18,210,45,42,18,68,49.22699999999996,1.1589999999999994,3.1719999999999975,6.953999999999994,19,5,9,13,211,8,11,24,5,0,20,5,6,L,0.23330331753554498,0.144875,0.2883636363636364,0.28974999999999995
2,6,11,1,7,21.227999999999984,17,92,1,87,5,7,23.48499999999998,7.685999999999994,0.488,1.646999999999999,20,16,2,5,100,37,2,5,6,0.5,39,5.25,6,L,0.23484999999999998,0.20772972972972972,0.244,0.32939999999999986
2,6,12,1,15,14.212999999999989,18,65,13,15,37,65,24.09499999999998,1.463999999999999,2.805999999999998,1.0369999999999995,20,8,7,5,115,8,12,5,6,0,21,5.25,6,L,0.20952173913043476,0.18299999999999997,0.23383333333333334,0.2074
2,7,13,1,7,17.689999999999987,18,80,8,2,46,69,17.750999999999987,3.3549999999999973,1.8299999999999987,6.404999999999995,19,9,6,14,81,14,7,33,6,0,21,5.25,6,L,0.21914814814814815,0.23964285714285713,0.2614285714285714,0.1940909090909091
2,7,14,1,2,18.360999999999986,18,88,55,59,57,88,19.458999999999985,3.3549999999999973,2.3179999999999983,0.427,20,13,9,2,92,17,11,3,4,0.5,27,3.75,6,L,0.21151086956521736,0.1973529411764706,0.2107272727272727,0.14233333333333334
2,8,15,1,3,17.018999999999988,14,76,86,1,25,33,29.34099999999998,2.0739999999999985,0.061,0.5489999999999999,20,6,1,3,117,7,1,3,5,0,19,4.75,6,L,0.25077777777777777,0.29628571428571426,0.061,0.183
2,8,16,1,15,27.14499999999998,20,151,15,17,19,68,27.205999999999978,1.4029999999999991,10.857999999999992,0.122,20,5,16,1,152,8,50,1,6,0.5,40,5.5,6,L,0.17898684210526314,0.175375,0.21715999999999996,0.122
2,9,17,1,12,29.889999999999976,15,147,48,42,66,23,30.133999999999975,1.4029999999999991,6.8319999999999945,5.916999999999995,18,3,15,10,150,6,26,20,5,0,20,5,6,L,0.2008933333333333,0.23383333333333334,0.26276923076923075,0.29585
2,9,18,1,14,39.22299999999997,15,168,88,94,87,4,40.19899999999997,0.122,1.8909999999999987,2.439999999999998,18,1,8,8,172,1,11,10,3,0.5,24,3.75,6,L,0.2337151162790697,0.122,0.1719090909090909,0.24399999999999997
2,10,19,1,11,16.28699999999999,17,75,72,65,38,66,19.763999999999985,0.305,2.1959999999999984,1.2809999999999993,20,2,11,3,85,2,13,3,4,0.5,29,4.25,6,L,0.2325176470588235,0.1525,0.16892307692307693,0.4269999999999999
2,10,20,1,8,16.774999999999988,20,79,99,102,105,16,18.421999999999986,1.524999999999999,3.3549999999999973,5.062999999999996,20,7,14,11,87,8,23,21,2,0.5,18,3,6,L,0.2117471264367816,0.190625,0.1458695652173913,0.24109523809523806
2,11,21,1,12,54.22899999999996,19,235,44,43,38,23,55.265999999999956,1.1589999999999994,0.061,1.4029999999999991,20,3,1,6,241,3,1,8,5,0.5,36,5.25,6,L,0.22931950207468876,0.38633333333333325,0.061,0.175375
2,11,22,1,7,20.434999999999985,20,102,12,4,103,2,20.495999999999984,4.147999999999997,1.524999999999999,2.8669999999999978,20,12,6,8,103,15,7,12,6,0.5,38,5,6,L,0.1989902912621359,0.2765333333333333,0.2178571428571428,0.23891666666666667
2,12,23,1,3,25.49799999999998,20,125,36,29,28,105,26.71799999999998,1.7689999999999988,1.524999999999999,6.587999999999995,20,4,8,16,129,4,8,33,5,0.5,32,4.25,6,L,0.20711627906976743,0.4422499999999999,0.190625,0.1996363636363636
2,12,24,1,7,11.650999999999991,19,65,2,10,4,11,13.907999999999989,1.2809999999999993,0.5489999999999999,0.427,20,6,3,3,72,6,4,3,6,1,72,6,6,L,0.19316666666666665,0.21349999999999997,0.13724999999999998,0.14233333333333334
2,13,25,1,7,14.090999999999989,20,64,2,7,4,72,20.373999999999985,0.122,4.208999999999997,0.8539999999999996,20,1,10,4,88,1,17,4,6,0.5,40,5.5,6,L,0.23152272727272724,0.122,0.2475882352941176,0.2135
2,13,26,1,13,11.101999999999991,20,62,112,57,20,19,13.724999999999989,20.983999999999984,9.027999999999993,16.957999999999988,20,18,15,16,75,80,36,61,2,0,18,4.5,6,L,0.183,0.2623,0.25077777777777777,0.27799999999999997
2,14,27,1,3,46.298999999999964,17,184,75,36,30,17,48.61699999999996,0.9149999999999996,1.0979999999999994,3.1109999999999975,20,6,5,11,193,6,5,21,5,0,19,4.75,6,L,0.251901554404145,0.1525,0.2196,0.14814285714285713
2,14,28,1,12,13.54199999999999,20,62,45,47,94,92,18.970999999999986,0.7319999999999998,1.524999999999999,0.122,20,3,12,2,88,4,13,2,5,0,16,4,6,L,0.21557954545454544,0.183,0.1173076923076923,0.061
2,15,29,1,8,23.60699999999998,20,100,99,100,102,101,23.66799999999998,2.9889999999999977,0.122,0.305,20,9,1,3,101,11,1,3,2,1,24,2,6,L,0.23433663366336632,0.2717272727272727,0.122,0.10166666666666667
2,15,30,1,7,33.488999999999976,20,151,11,28,3,12,33.915999999999976,3.598999999999997,7.441999999999994,0.7929999999999997,20,14,16,3,153,17,27,3,6,0.5,41,5.75,6,L,0.22167320261437906,0.21170588235294116,0.27562962962962956,0.2643333333333333
2,16,31,1,12,10.552999999999992,20,62,40,37,7,2,12.93199999999999,9.515999999999993,8.051999999999994,4.086999999999997,20,15,16,14,69,43,36,21,5,0,22,5.5,6,L,0.18742028985507245,0.22130232558139534,0.22366666666666665,0.1946190476190476
2,16,32,1,11,38.12499999999997,15,159,68,15,70,83,38.36899999999997,1.585999999999999,1.9519999999999986,6.8929999999999945,17,2,7,14,161,4,8,30,4,0,17,4.25,6,L,0.23831677018633537,0.39649999999999996,0.24399999999999997,0.22976666666666662
3,1,1,0,1,28.242999999999977,20,136,84,29,57,12,31.231999999999974,6.160999999999995,5.855999999999995,2.3789999999999982,20,15,16,7,150,32,27,8,3,0,18,4.5,6,L,0.2082133333333333,0.19253125,0.21688888888888888,0.29737499999999994
3,1,2,0,8,26.10799999999998,18,123,113,115,114,85,26.22999999999998,0.6099999999999999,4.6969999999999965,1.8909999999999987,20,3,13,5,125,3,24,8,2,0.5,15,2.25,6,L,0.20983999999999997,0.20333333333333334,0.19570833333333332,0.23637499999999997
3,2,3,0,5,26.10799999999998,20,139,40,37,63,68,27.876999999999978,4.208999999999997,4.574999999999997,0.427,20,10,15,2,145,15,22,2,5,0,18,4.5,6,L,0.19225517241379309,0.28059999999999996,0.20795454545454545,0.2135
3,2,4,0,2,37.33199999999997,15,166,15,57,55,25,39.46699999999997,1.2809999999999993,2.3789999999999982,1.2809999999999993,20,4,11,5,174,4,13,5,4,0,19,4.75,6,L,0.22682183908045975,0.32025,0.183,0.2562
3,3,5,0,10,41.66299999999997,14,163,96,94,89,25,41.84599999999997,1.7079999999999989,3.4159999999999973,0.305,16,4,14,1,165,4,19,1,3,0.5,23,3.5,6,L,0.2536121212121212,0.427,0.17978947368421053,0.305
3,3,6,0,2,25.25399999999998,20,123,84,110,113,119,55.875999999999955,3.598999999999997,7.075999999999994,1.646999999999999,20,9,17,7,242,17,26,7,4,0.5,15,2.25,6,L,0.23089256198347108,0.21170588235294116,0.27215384615384614,0.23528571428571426
3,4,7,0,5,11.406999999999991,17,55,13,23,46,42,55.204999999999956,0.7319999999999998,0.244,0.183,20,2,2,2,261,2,2,2,5,0,22,5.5,6,L,0.2115134099616858,0.366,0.122,0.0915
3,4,8,0,6,20.312999999999985,13,104,3,9,8,27,20.495999999999984,1.1589999999999994,1.0369999999999995,4.025999999999997,15,3,5,9,106,3,5,15,6,0.5,41,5.75,6,L,0.19335849056603774,0.3863333333333333,0.20739999999999997,0.2683999999999999
3,5,9,0,1,17.262999999999987,19,93,83,73,77,16,17.872999999999987,1.4029999999999991,10.125999999999992,0.9759999999999995,20,6,16,4,97,7,45,4,3,0.5,24,3.75,6,L,0.18425773195876285,0.20042857142857143,0.22502222222222218,0.244
3,5,10,0,10,18.604999999999986,17,94,90,93,91,95,18.665999999999986,0.366,4.208999999999997,4.269999999999997,18,3,13,9,95,3,21,16,3,1,36,3,6,L,0.19648421052631576,0.122,0.20042857142857143,0.266875
3,6,11,1,15,17.628999999999987,16,83,13,18,17,16,26.290999999999983,0.122,0.6709999999999998,2.3789999999999982,20,2,3,5,125,2,4,6,6,1,72,6,6,L,0.210328,0.061,0.16775,0.3964999999999999
3,6,12,1,2,14.090999999999989,16,67,4,77,5,83,54.04599999999996,0.488,6.465999999999995,0.244,20,4,16,1,228,5,28,1,4,0,18,4.5,6,L,0.2370438596491228,0.09759999999999999,0.23092857142857137,0.244
3,7,13,1,15,18.238999999999987,19,86,14,13,36,16,19.153999999999986,3.9649999999999967,0.061,0.9759999999999995,20,10,1,8,90,14,1,10,6,0.5,41,5.75,6,L,0.2128222222222222,0.2832142857142857,0.061,0.09759999999999999
3,7,14,1,12,37.88099999999997,19,155,44,48,43,41,39.16199999999997,1.8299999999999987,0.6709999999999998,0.183,20,5,5,1,162,6,6,1,5,1,60,5,6,L,0.2417407407407407,0.30499999999999994,0.11183333333333334,0.183
3,8,15,1,11,40.80899999999997,19,194,115,116,62,71,43.61499999999997,0.5489999999999999,0.9149999999999996,3.1109999999999975,20,1,4,9,207,1,5,9,4,0,12,3,6,L,0.21070048309178743,0.5489999999999999,0.18299999999999997,0.3456666666666666
3,8,16,1,7,18.238999999999987,16,83,2,11,43,4,20.007999999999985,8.173999999999994,3.720999999999997,2.9889999999999977,20,16,10,8,94,43,14,10,6,0.5,41,5.75,6,L,0.21285106382978722,0.19009302325581393,0.26578571428571424,0.29889999999999994
3,9,17,1,12,20.556999999999984,12,100,47,43,39,105,21.105999999999984,0.6099999999999999,0.305,2.805999999999998,14,3,1,8,102,3,1,10,5,0.5,32,4.25,6,L,0.20692156862745098,0.20333333333333334,0.305,0.28059999999999996
3,9,18,1,3,15.920999999999987,20,77,28,27,6,88,16.530999999999988,1.4029999999999991,16.28699999999999,10.674999999999992,20,6,18,16,82,6,68,39,5,0,19,4.75,6,L,0.20159756097560974,0.23383333333333328,0.23951470588235294,0.2737179487179487
3,10,19,1,11,12.93199999999999,20,67,62,15,88,98,14.700999999999988,6.343999999999995,0.8539999999999996,6.648999999999995,20,12,4,13,74,22,4,32,4,0,15,3.75,6,L,0.19866216216216215,0.2883636363636363,0.21349999999999997,0.20778125
3,10,20,1,7,24.39999999999998,19,123,5,7,11,74,24.46099999999998,2.1959999999999984,0.8539999999999996,15.798999999999987,20,9,5,15,124,13,6,61,6,0.5,39,5.25,6,L,0.19726612903225807,0.16892307692307693,0.14233333333333334,0.25899999999999995
3,11,21,1,8,25.43699999999998,17,125,101,98,106,104,25.68099999999998,2.683999999999998,0.244,0.427,18,11,2,2,126,16,2,2,2,1,24,2,6,L,0.20381746031746031,0.16774999999999998,0.122,0.2135
3,11,22,1,2,31.170999999999975,19,145,53,52,87,114,31.902999999999974,4.025999999999997,3.3549999999999973,0.7929999999999997,20,12,6,5,149,16,8,5,4,0,13,3.25,6,L,0.21411409395973152,0.25162499999999993,0.4193749999999999,0.1586
3,12,23,1,8,31.292999999999974,19,142,28,107,105,84,53.86299999999996,0.061,0.5489999999999999,0.305,20,1,2,1,230,1,2,1,2,0,12,3,6,L,0.2341869565217391,0.061,0.27449999999999997,0.305
3,12,24,1,2,17.811999999999987,20,93,59,55,56,49,18.116999999999987,0.061,1.4029999999999991,0.244,20,1,3,1,94,1,3,1,4,1,48,4,6,L,0.1927340425531915,0.061,0.46766666666666656,0.244
3,13,25,1,14,44.712999999999965,17,168,88,96,90,24,44.956999999999965,0.061,11.223999999999991,11.95599999999999,19,1,18,16,170,1,41,45,3,0.5,24,3.75,6,L,0.2644529411764705,0.061,0.2737560975609756,0.26568888888888886
3,13,26,1,11,27.14499999999998,19,121,65,111,113,115,27.571999999999978,13.05399999999999,13.23699999999999,12.74899999999999,20,18,16,15,123,59,46,56,4,0.5,16,2.5,6,L,0.22416260162601626,0.22125423728813556,0.28776086956521735,0.22766071428571424
3,14,27,1,12,37.81999999999997,20,162,41,37,47,44,37.94199999999997,0.9149999999999996,1.0979999999999994,1.463999999999999,20,5,4,8,164,5,4,8,5,1,60,5,6,L,0.2313536585365853,0.183,0.27449999999999997,0.183
3,14,28,1,15,16.774999999999988,20,77,31,75,17,22,33.244999999999976,0.061,1.9519999999999986,0.7319999999999998,20,1,6,3,156,1,8,3,6,0,20,5,6,L,0.21310897435897433,0.061,0.244,0.244
3,15,29,1,15,15.676999999999987,19,77,14,38,45,90,36.66099999999997,0.427,1.2809999999999993,0.366,20,3,3,4,169,4,3,4,6,0,19,4.75,6,L,0.21692899408284022,0.10675,0.42699999999999994,0.0915
3,15,30,1,7,11.162999999999991,18,60,3,11,25,79,11.345999999999991,4.147999999999997,21.105999999999984,0.183,20,11,15,1,62,18,77,1,6,0,20,5,6,L,0.183,0.23044444444444442,0.27410389610389607,0.183
3,16,31,1,11,14.334999999999988,20,87,88,32,69,72,28.547999999999977,1.2199999999999993,0.5489999999999999,1.7079999999999989,20,4,4,8,146,4,4,9,4,0,16,4,6,L,0.19553424657534244,0.30499999999999994,0.13724999999999998,0.18977777777777777
3,16,32,1,2,20.251999999999985,20,91,53,57,55,39,20.922999999999984,1.3419999999999992,1.463999999999999,0.6709999999999998,20,5,10,2,96,5,10,3,4,0.5,29,4.25,6,L,0.21794791666666666,0.26839999999999997,0.1464,0.22366666666666665
4,1,1,0,7,23.057999999999982,20,105,24,16,92,36,23.42399999999998,4.574999999999997,7.136999999999994,2.2569999999999983,20,10,16,12,108,14,36,14,6,0,20,5,6,L,0.21688888888888888,0.3267857142857142,0.19824999999999998,0.1612142857142857
4,1,2,0,5,25.74199999999998,20,129,38,44,48,82,25.80299999999998,0.7929999999999997,1.8909999999999987,4.940999999999996,20,2,7,8,130,3,7,11,5,0.5,33,4.5,6,L,0.19848461538461537,0.2643333333333333,0.2701428571428571,0.44918181818181807
4,2,3,0,6,17.994999999999987,20,83,6,9,11,81,18.055999999999987,10.674999999999992,2.500999999999998,13.23699999999999,20,16,7,16,84,41,8,61,6,0.5,39,5.25,6,L,0.21495238095238095,0.26036585365853654,0.31262499999999993,0.217
4,2,4,0,7,14.883999999999988,19,67,14,16,17,24,20.556999999999984,0.6709999999999998,0.183,5.550999999999996,20,2,1,9,90,2,1,14,6,1,72,6,6,L,0.2284111111111111,0.33549999999999996,0.183,0.39649999999999985
4,3,5,0,6,12.99299999999999,16,63,5,3,11,25,17.079999999999988,3.720999999999997,0.061,2.2569999999999983,20,13,1,10,82,16,1,14,6,0.5,41,5.75,6,L,0.20829268292682926,0.23256249999999998,0.061,0.1612142857142857
4,3,6,0,5,14.761999999999988,16,64,41,38,42,13,17.323999999999987,3.2939999999999974,1.0369999999999995,12.01699999999999,20,8,4,16,76,10,4,47,5,0.5,36,5.25,6,L,0.2279473684210526,0.3293999999999999,0.25925,0.25568085106382976
4,4,7,0,2,44.224999999999966,15,194,58,56,24,22,45.505999999999965,3.0499999999999976,1.524999999999999,17.872999999999987,18,10,6,17,197,11,6,76,4,0,20,5,6,L,0.230994923857868,0.2772727272727272,0.25416666666666665,0.23517105263157892
4,4,8,0,9,14.395999999999988,16,65,65,66,80,69,17.140999999999988,17.750999999999987,1.4029999999999991,0.183,20,18,5,2,78,68,5,2,4,0.5,27,3.75,6,L,0.21975641025641024,0.2610441176470588,0.2806,0.0915
4,5,9,0,6,13.17599999999999,18,58,1,8,7,80,13.41999999999999,0.9149999999999996,10.552999999999992,4.391999999999997,20,4,17,11,60,5,42,15,6,0.5,39,5.25,6,L,0.22366666666666665,0.183,0.25126190476190474,0.29279999999999995
4,5,10,0,7,28.974999999999977,18,147,16,90,86,24,29.035999999999976,8.905999999999993,0.488,1.524999999999999,19,11,3,6,148,22,3,8,6,0,18,4.5,6,L,0.19618918918918918,0.40481818181818174,0.16266666666666665,0.190625
4,6,11,1,1,37.51499999999997,15,169,82,78,72,15,37.81999999999997,2.683999999999998,12.50499999999999,2.3789999999999982,16,9,17,6,170,10,50,6,3,0,16,4,6,L,0.22247058823529411,0.26839999999999997,0.2501,0.39649999999999996
4,6,12,1,7,26.59599999999998,18,135,7,89,12,11,26.65699999999998,5.306999999999996,1.524999999999999,2.8669999999999978,19,10,8,9,136,15,9,9,6,0.5,39,5.25,6,L,0.19600735294117647,0.35379999999999995,0.16944444444444445,0.3185555555555555
4,7,13,1,11,24.39999999999998,20,121,2,63,110,41,58.07199999999996,6.099999999999995,0.5489999999999999,0.122,20,16,2,1,261,25,2,1,4,0,17,4.25,6,L,0.22249808429118773,0.24399999999999997,0.27449999999999997,0.122
4,7,14,1,3,12.99299999999999,18,70,30,29,36,86,14.273999999999988,2.500999999999998,1.524999999999999,3.3549999999999973,20,6,5,11,76,8,6,15,5,0.5,33,4.5,6,L,0.1878157894736842,0.31262499999999993,0.25416666666666665,0.22366666666666665
4,8,15,1,7,10.674999999999992,16,51,5,8,46,92,10.735999999999992,1.524999999999999,3.720999999999997,10.979999999999992,17,5,9,13,52,7,15,44,6,0,20,5,6,L,0.20646153846153845,0.21785714285714286,0.24806666666666663,0.24954545454545451
4,8,16,1,3,18.848999999999986,20,84,35,32,31,29,20.251999999999985,0.488,1.0979999999999994,10.186999999999992,20,3,6,14,91,3,6,35,5,1,60,5,6,L,0.22254945054945052,0.16266666666666665,0.183,0.2910571428571428
4,9,17,1,15,18.177999999999987,18,92,23,16,115,15,19.580999999999985,4.6969999999999965,2.622999999999998,10.674999999999992,20,11,7,16,98,18,9,40,6,0.5,38,5,6,L,0.19980612244897958,0.2609444444444444,0.29144444444444445,0.2668749999999999
4,9,18,1,8,30.255999999999975,19,147,97,98,106,51,31.170999999999975,2.9279999999999977,0.7319999999999998,4.940999999999996,20,8,4,14,150,8,4,22,2,0.5,16,2.5,6,L,0.20780666666666664,0.3659999999999999,0.183,0.22459090909090906
4,10,19,1,13,27.815999999999978,20,135,94,2,116,111,55.204999999999956,19.946999999999985,1.2199999999999993,1.1589999999999994,20,17,4,8,244,81,4,9,2,0,13,3.25,6,L,0.22624999999999998,0.24625925925925923,0.30499999999999994,0.12877777777777777
4,10,20,1,15,25.98599999999998,20,128,16,76,78,18,26.10799999999998,6.648999999999995,1.7079999999999989,5.001999999999996,20,14,5,11,130,27,5,21,6,0,18,4.5,6,L,0.2008307692307692,0.24625925925925923,0.3415999999999999,0.23819047619047615
4,11,21,1,7,13.602999999999989,16,60,1,6,8,10,15.371999999999987,0.122,0.366,0.427,20,1,2,2,67,1,2,2,6,1,72,6,6,L,0.22943283582089552,0.122,0.183,0.2135
4,11,22,1,3,12.13899999999999,19,67,26,110,32,28,15.859999999999987,2.3179999999999983,0.8539999999999996,0.061,20,7,5,1,85,8,5,1,5,0.5,32,4.25,6,L,0.18658823529411764,0.28974999999999995,0.1708,0.061
4,12,23,1,12,14.273999999999988,19,67,48,2,4,49,19.092999999999986,1.585999999999999,23.42399999999998,1.7079999999999989,20,3,18,8,91,3,86,8,5,0,21,5.25,6,L,0.2098131868131868,0.5286666666666665,0.27237209302325577,0.21349999999999994
4,12,24,1,11,30.804999999999975,15,133,83,13,67,62,41.96799999999997,8.173999999999994,0.183,2.1349999999999985,20,15,2,7,179,28,2,9,4,0,17,4.25,6,L,0.2344581005586592,0.29192857142857137,0.0915,0.23722222222222222
4,13,25,1,8,13.663999999999989,15,64,106,102,104,96,16.16499999999999,5.123999999999996,1.0979999999999994,10.003999999999992,20,14,8,15,74,25,8,41,2,0.5,15,2.25,6,L,0.21844594594594594,0.20495999999999998,0.13724999999999998,0.24399999999999997
4,13,26,1,15,16.16499999999999,19,73,20,19,21,81,17.323999999999987,8.966999999999993,1.2199999999999993,0.7319999999999998,20,18,6,2,82,40,6,2,6,0.5,39,5.25,6,L,0.21126829268292682,0.22417499999999996,0.2033333333333333,0.366
4,14,27,1,2,30.072999999999976,18,107,56,52,1,60,30.804999999999975,0.244,1.0369999999999995,3.2329999999999974,20,2,2,8,110,2,2,12,4,0.5,30,4.5,6,L,0.2800454545454545,0.122,0.5184999999999998,0.2694166666666666
4,14,28,1,15,11.223999999999991,20,64,14,23,20,83,12.13899999999999,3.2329999999999974,6.404999999999995,6.953999999999994,20,10,14,13,67,11,33,29,6,0.5,39,5.25,6,L,0.18117910447761193,0.29390909090909084,0.1940909090909091,0.23979310344827587
4,15,29,1,12,17.201999999999988,20,79,42,77,81,3,20.617999999999984,6.465999999999995,8.966999999999993,5.184999999999996,20,12,14,13,102,22,31,23,5,0,17,4.25,6,L,0.20213725490196077,0.29390909090909084,0.289258064516129,0.22543478260869562
4,15,30,1,15,10.796999999999992,20,54,19,21,61,24,11.71199999999999,4.391999999999997,5.489999999999996,3.3549999999999973,20,11,17,9,57,15,30,16,6,0.5,40,5.5,6,L,0.2054736842105263,0.2928,0.183,0.20968749999999997
4,16,31,1,12,22.691999999999982,19,118,37,39,115,44,22.874999999999982,9.149999999999993,0.244,0.6099999999999999,20,15,2,3,120,38,3,4,5,0.5,32,4.25,6,L,0.190625,0.24078947368421053,0.08133333333333333,0.1525
4,16,32,1,15,26.47399999999998,19,117,21,14,17,15,27.449999999999978,4.940999999999996,0.7929999999999997,5.7339999999999955,20,13,5,14,123,19,5,26,6,1,72,6,6,L,0.22317073170731705,0.26005263157894737,0.1586,0.22053846153846152
5,1,1,0,5,15.127999999999988,19,72,45,43,48,42,17.140999999999988,0.122,1.8299999999999987,5.245999999999996,20,1,7,13,78,1,10,22,5,1,60,5,6,L,0.21975641025641024,0.122,0.183,0.23845454545454545
5,1,2,0,9,30.682999999999975,19,136,63,67,27,62,31.780999999999974,1.3419999999999992,2.0739999999999985,1.4029999999999991,20,2,3,5,140,2,5,6,4,0.5,29,4.25,6,L,0.22700714285714282,0.6709999999999997,0.4147999999999999,0.2338333333333333
5,2,3,0,7,19.824999999999985,20,101,14,15,20,60,20.556999999999984,1.1589999999999994,0.6709999999999998,14.883999999999988,20,2,3,17,105,2,3,62,6,0.5,40,5.5,6,L,0.19578095238095236,0.5794999999999999,0.22366666666666665,0.2400645161290322
5,2,4,0,9,26.53499999999998,20,133,67,66,11,9,27.632999999999978,0.6709999999999998,5.367999999999996,8.600999999999994,20,3,14,16,138,3,23,48,4,0,20,5,6,L,0.2002391304347826,0.22366666666666665,0.23339130434782607,0.1791875
5,3,5,0,5,19.336999999999986,17,95,48,47,15,39,19.946999999999985,5.184999999999996,4.330999999999997,2.1349999999999985,20,10,8,9,100,19,13,10,5,0.5,36,5.25,6,L,0.19946999999999998,0.27289473684210525,0.33315384615384613,0.2135
5,3,6,0,6,17.079999999999988,18,75,2,8,12,58,17.445999999999987,2.3179999999999983,4.147999999999997,8.356999999999994,19,9,11,14,76,12,17,32,6,0.5,40,5.5,6,L,0.22955263157894734,0.19316666666666665,0.24399999999999997,0.26115625
5,4,7,0,3,24.76599999999998,15,111,32,8,29,26,24.82699999999998,8.112999999999994,2.805999999999998,0.9149999999999996,16,15,9,4,112,30,10,5,5,0.5,36,5.25,6,L,0.22166964285714283,0.2704333333333333,0.28059999999999996,0.183
5,4,8,0,5,22.020999999999983,20,113,40,42,38,47,23.97299999999998,0.7929999999999997,0.061,1.9519999999999986,20,8,1,7,122,8,1,11,5,1,60,5,6,L,0.19649999999999998,0.09912499999999999,0.061,0.17745454545454545
5,5,9,0,2,25.00999999999998,20,115,55,95,115,109,25.61999999999998,17.811999999999987,6.770999999999995,9.637999999999993,20,16,17,15,119,83,30,32,4,0,11,2.75,6,L,0.2152941176470588,0.2146024096385542,0.22569999999999998,0.30118749999999994
5,5,10,0,1,17.140999999999988,19,90,73,81,77,82,19.275999999999986,6.465999999999995,0.7319999999999998,2.1349999999999985,20,16,5,6,94,25,7,10,3,1,36,3,6,L,0.20506382978723403,0.25864,0.10457142857142857,0.2135
5,6,11,1,15,15.554999999999987,20,75,16,21,23,24,19.214999999999986,1.0979999999999994,0.183,0.9759999999999995,20,3,2,2,86,3,2,2,6,1,72,6,6,L,0.2234302325581395,0.36599999999999994,0.0915,0.4879999999999998
5,6,12,1,7,23.60699999999998,15,100,4,3,9,40,24.03399999999998,6.8929999999999945,3.1109999999999975,0.9149999999999996,18,12,11,2,103,32,15,2,6,0.5,41,5.75,6,L,0.2333398058252427,0.21540625,0.20739999999999997,0.45749999999999996
5,7,13,1,11,52.21599999999996,15,226,62,19,17,23,53.19199999999996,12.80999999999999,15.249999999999988,0.427,20,19,18,2,234,57,64,2,4,0.5,40,5.5,6,L,0.2273162393162393,0.22473684210526315,0.23828124999999997,0.2135
5,7,14,1,2,37.39299999999997,19,175,59,99,50,93,37.45399999999997,6.526999999999995,0.305,2.0129999999999986,20,13,1,6,176,29,1,6,4,0,13,3.25,6,L,0.21280681818181818,0.22506896551724134,0.305,0.33549999999999996
5,8,15,1,14,21.105999999999984,20,104,94,14,106,91,24.39999999999998,5.672999999999996,1.7689999999999988,0.488,20,13,4,3,121,26,6,3,3,0,14,3.5,6,L,0.20165289256198346,0.21819230769230769,0.29483333333333334,0.16266666666666665
5,8,16,1,7,16.957999999999988,16,76,7,4,109,1,17.750999999999987,0.9149999999999996,11.406999999999991,2.8669999999999978,20,5,17,8,81,5,43,11,6,0.5,38,5,6,L,0.21914814814814815,0.183,0.2652790697674418,0.2606363636363636
5,9,17,1,1,30.682999999999975,18,145,84,97,18,19,34.586999999999975,13.48099999999999,8.661999999999994,16.34799999999999,20,18,16,17,171,53,48,73,3,0,17,4.25,6,L,0.2022631578947368,0.2543584905660377,0.18045833333333333,0.22394520547945204
5,9,18,1,7,10.186999999999992,18,55,4,7,6,12,11.162999999999991,2.683999999999998,2.3179999999999983,2.439999999999998,20,8,6,5,60,11,7,6,6,1,72,6,6,L,0.18605,0.244,0.331142857142857,0.4066666666666665
5,10,19,1,11,22.569999999999983,20,110,65,67,94,68,24.33899999999998,0.8539999999999996,5.977999999999995,0.488,20,4,16,5,117,6,28,6,4,0.5,27,3.75,6,L,0.20802564102564103,0.14233333333333334,0.21349999999999997,0.08133333333333333
5,10,20,1,12,16.835999999999988,20,85,46,42,40,4,17.079999999999988,2.1959999999999984,2.9279999999999977,19.702999999999985,20,10,10,17,87,14,16,68,5,0.5,36,5.25,6,L,0.19632183908045975,0.15685714285714286,0.183,0.28974999999999995
5,11,21,1,15,25.80299999999998,16,114,15,23,22,92,25.86399999999998,3.2329999999999974,2.9279999999999977,10.369999999999992,17,8,12,15,115,10,15,47,6,0.5,39,5.25,6,L,0.22490434782608693,0.3233,0.19519999999999996,0.2206382978723404
5,11,22,1,7,6.8319999999999945,14,33,2,5,7,12,20.007999999999985,1.463999999999999,0.061,0.061,20,10,1,1,79,10,1,1,6,1,72,6,6,L,0.2532658227848101,0.1464,0.061,0.061
5,12,23,1,7,16.28699999999999,19,87,6,9,8,51,16.34799999999999,0.488,12.19999999999999,25.55899999999998,20,3,16,16,88,3,48,108,6,0.5,40,5.5,6,L,0.18577272727272726,0.16266666666666665,0.25416666666666665,0.23665740740740737
5,12,24,1,11,14.212999999999989,13,74,72,62,70,14,15.005999999999988,1.8299999999999987,1.646999999999999,13.11499999999999,16,5,6,15,77,6,6,60,4,0.5,30,4.5,6,L,0.19488311688311688,0.30499999999999994,0.27449999999999997,0.21858333333333332
5,13,25,1,12,44.285999999999966,17,186,44,38,43,14,44.773999999999965,2.0129999999999986,6.282999999999995,4.513999999999997,19,6,16,12,189,7,33,19,5,0.5,36,5.25,6,L,0.23689947089947086,0.28757142857142853,0.19039393939393937,0.23757894736842103
5,13,26,1,3,27.14499999999998,18,119,90,94,2,34,46.237999999999964,2.0739999999999985,0.488,0.122,20,7,1,1,191,9,1,1,5,0,17,4.25,6,L,0.24208376963350783,0.23044444444444442,0.488,0.122
5,14,27,1,2,53.92399999999996,12,241,60,57,55,105,54.04599999999996,1.9519999999999986,1.646999999999999,6.343999999999995,13,6,7,11,242,7,7,21,4,0.5,26,3.5,6,L,0.22333057851239668,0.27885714285714286,0.2352857142857143,0.3020952380952381
5,14,28,1,7,11.89499999999999,20,55,2,4,9,91,12.93199999999999,1.0369999999999995,0.366,2.0129999999999986,20,7,2,6,60,7,2,9,6,0.5,39,5.25,6,L,0.21553333333333333,0.14814285714285713,0.183,0.22366666666666665
5,15,29,1,11,34.159999999999975,19,146,63,92,71,64,39.16199999999997,2.0739999999999985,2.0739999999999985,0.122,20,7,5,1,172,10,5,1,4,0.5,27,3.75,6,L,0.22768604651162788,0.2074,0.4147999999999998,0.122
5,15,30,1,15,12.50499999999999,20,75,14,19,16,21,19.336999999999986,2.622999999999998,0.122,1.1589999999999994,20,6,1,4,102,7,1,4,6,1,72,6,6,L,0.189578431372549,0.3747142857142856,0.122,0.28975
5,16,31,1,8,38.42999999999997,20,166,101,55,8,88,39.03999999999997,2.1959999999999984,3.903999999999997,0.427,20,7,10,3,169,10,14,4,2,0,15,3.75,6,L,0.2310059171597633,0.2196,0.2788571428571428,0.10675
5,16,32,1,15,12.01699999999999,18,73,18,13,23,24,15.005999999999988,0.5489999999999999,1.7689999999999988,1.2809999999999993,20,3,10,4,90,3,13,5,6,1,72,6,6,L,0.16673333333333332,0.183,0.13607692307692307,0.25619999999999993
6,1,1,0,6,18.787999999999986,20,98,4,3,6,97,19.702999999999985,15.249999999999988,0.8539999999999996,0.061,20,18,3,1,103,74,3,1,6,0.5,38,5,6,L,0.19129126213592232,0.20608108108108106,0.2846666666666667,0.061
6,1,2,0,8,16.469999999999988,19,75,114,116,119,112,18.421999999999986,0.7929999999999997,0.6709999999999998,0.305,20,4,5,1,82,4,5,1,2,1,24,2,6,L,0.22465853658536583,0.19824999999999998,0.13419999999999999,0.305
6,2,3,0,7,22.691999999999982,20,96,22,13,15,113,24.39999999999998,5.7339999999999955,4.147999999999997,5.550999999999996,20,15,7,15,105,28,12,26,6,0.5,38,5,6,L,0.23238095238095235,0.20478571428571427,0.3456666666666666,0.2135
6,2,4,0,6,19.763999999999985,16,100,4,8,10,59,19.885999999999985,3.1719999999999975,5.7339999999999955,1.1589999999999994,18,11,16,4,102,14,23,5,6,0.5,40,5.5,6,L,0.19496078431372546,0.22657142857142856,0.24930434782608693,0.2318
6,3,5,0,6,16.22599999999999,16,65,12,2,4,10,16.591999999999988,2.1349999999999985,5.672999999999996,0.366,18,8,11,2,67,9,20,2,6,1,72,6,6,L,0.2476417910447761,0.2372222222222222,0.28364999999999996,0.183
6,3,6,0,7,11.284999999999991,16,59,15,14,13,103,12.32199999999999,3.0499999999999976,2.2569999999999983,2.9279999999999977,20,10,7,9,64,14,11,14,6,0.5,38,5,6,L,0.19253125,0.21785714285714286,0.2051818181818182,0.20914285714285713
6,4,7,0,3,22.203999999999983,18,103,32,34,33,21,22.996999999999982,1.7079999999999989,7.441999999999994,5.855999999999995,20,5,14,14,108,6,24,22,5,0.5,36,5.25,6,L,0.21293518518518517,0.2846666666666667,0.3100833333333333,0.26618181818181813
6,4,8,0,6,59.84099999999995,13,233,6,2,1,53,62.46399999999995,7.563999999999994,0.5489999999999999,2.561999999999998,20,14,2,10,245,25,3,14,6,0.5,40,5.5,6,L,0.2549551020408163,0.30255999999999994,0.183,0.183
6,5,9,0,7,21.166999999999984,16,103,17,15,19,34,21.227999999999984,4.818999999999996,1.524999999999999,0.7319999999999998,17,14,6,3,104,18,8,3,6,0.5,41,5.75,6,L,0.2041153846153846,0.2677222222222222,0.19062499999999993,0.244
6,5,10,0,5,12.01699999999999,18,60,46,55,112,57,12.56599999999999,19.458999999999985,8.905999999999993,0.488,20,17,14,3,65,87,33,3,5,0,15,3.75,6,L,0.1933230769230769,0.22366666666666665,0.26987878787878783,0.16266666666666665
6,6,11,1,11,28.608999999999977,20,130,72,63,70,68,29.279999999999976,1.7079999999999989,0.183,5.672999999999996,20,9,1,14,132,10,1,32,4,1,48,4,6,L,0.2218181818181818,0.1708,0.183,0.17728125
6,6,12,1,8,19.763999999999985,19,89,52,101,98,53,48.92199999999996,0.183,0.9759999999999995,4.086999999999997,20,2,4,14,199,2,4,17,2,0,12,3,6,L,0.24583919597989945,0.0915,0.24399999999999994,0.24041176470588232
6,7,13,1,7,23.301999999999982,20,115,6,48,12,44,23.362999999999982,5.855999999999995,5.672999999999996,15.859999999999987,20,12,11,15,116,26,20,78,6,0,22,5.5,6,L,0.20140517241379308,0.2252307692307692,0.28364999999999996,0.2033333333333333
6,7,14,1,3,25.43699999999998,20,120,13,25,26,23,74.66399999999994,0.5489999999999999,0.122,0.305,20,5,1,3,335,7,1,3,5,0,22,5.5,6,L,0.2228776119402985,0.07842857142857143,0.122,0.10166666666666667
6,8,15,1,13,11.89499999999999,19,62,1,59,95,116,70.14999999999995,0.427,0.6709999999999998,0.427,20,5,2,2,298,5,2,2,2,0,15,3.75,6,L,0.23540268456375837,0.0854,0.3355,0.2135
6,8,16,1,1,59.53599999999995,16,264,106,82,74,46,61.24399999999995,0.9759999999999995,1.463999999999999,1.7079999999999989,20,5,7,8,274,6,10,8,3,0,13,3.25,6,L,0.22351824817518245,0.16266666666666665,0.1464,0.2135
6,9,17,1,7,18.177999999999987,20,90,5,81,10,8,19.214999999999986,1.646999999999999,0.244,11.467999999999991,20,3,1,15,95,3,1,45,6,0.5,39,5.25,6,L,0.20226315789473684,0.5489999999999998,0.244,0.25484444444444443
6,9,18,1,11,22.203999999999983,16,111,68,61,65,91,22.813999999999982,0.122,0.061,7.136999999999994,19,1,1,17,114,1,1,41,4,0.5,27,3.75,6,L,0.20012280701754384,0.122,0.061,0.1740731707317073
6,10,19,1,3,24.58299999999998,19,113,29,30,31,89,24.70499999999998,1.8909999999999987,4.574999999999997,2.0129999999999986,20,8,12,4,114,11,16,4,5,0.5,33,4.5,6,L,0.21671052631578946,0.1719090909090909,0.28593749999999996,0.5032499999999999
6,10,20,1,12,19.580999999999985,18,102,5,65,80,115,55.87599999999996,0.183,1.0369999999999995,0.7929999999999997,20,2,4,4,272,2,4,4,5,0,15,3.75,6,L,0.20542647058823527,0.0915,0.2592499999999999,0.19824999999999998
6,11,21,1,15,11.162999999999991,17,60,15,13,24,19,16.469999999999988,6.953999999999994,0.244,1.0369999999999995,20,16,2,3,86,27,2,4,6,1,72,6,6,L,0.19151162790697673,0.25755555555555554,0.122,0.25925
6,11,22,1,1,22.142999999999983,20,109,83,80,75,32,26.83999999999998,0.6709999999999998,2.439999999999998,4.391999999999997,20,4,8,12,130,4,10,24,3,0.5,23,3.5,6,L,0.20646153846153845,0.16775,0.244,0.183
6,12,23,1,13,16.652999999999988,20,74,84,3,10,73,48.12899999999996,2.622999999999998,0.427,0.6709999999999998,20,7,1,3,200,7,1,3,2,0,18,4.5,6,L,0.24064499999999997,0.3747142857142856,0.427,0.22366666666666665
6,12,24,1,15,13.785999999999989,18,72,16,14,17,18,15.432999999999987,2.1959999999999984,1.3419999999999992,0.6709999999999998,20,10,6,3,83,13,6,3,6,1,72,6,6,L,0.18593975903614457,0.1689230769230769,0.22366666666666662,0.22366666666666665
6,13,25,1,13,30.011999999999976,18,116,110,116,111,81,34.037999999999975,0.366,0.244,4.635999999999997,20,2,3,10,136,2,3,20,2,0.5,15,2.25,6,L,0.25027941176470586,0.183,0.08133333333333333,0.23179999999999998
6,13,26,1,8,15.981999999999987,18,75,97,91,30,96,20.373999999999985,8.783999999999994,5.184999999999996,1.7689999999999988,20,16,15,9,94,47,25,9,2,0,13,3.25,6,L,0.2167446808510638,0.18689361702127658,0.20739999999999997,0.19655555555555554
6,14,27,1,13,23.97299999999998,19,104,111,114,118,8,24.70499999999998,5.123999999999996,1.1589999999999994,2.622999999999998,20,14,6,7,107,22,6,9,2,0.5,18,3,6,L,0.2308878504672897,0.2329090909090909,0.19316666666666665,0.2914444444444444
6,14,28,1,15,15.493999999999987,18,74,14,18,85,20,28.242999999999977,0.183,1.0369999999999995,0.427,20,2,5,3,140,2,5,3,6,0.5,39,5.25,6,L,0.20173571428571427,0.0915,0.2074,0.14233333333333334
6,15,29,1,7,11.345999999999991,16,53,3,8,10,11,11.406999999999991,3.781999999999997,0.183,5.245999999999996,17,9,2,13,54,14,2,24,6,1,72,6,6,L,0.21124074074074073,0.27014285714285713,0.0915,0.21858333333333332
6,15,30,1,12,27.571999999999978,19,132,44,42,41,15,28.608999999999977,0.122,18.421999999999986,5.977999999999995,20,1,17,15,139,1,79,27,5,0.5,36,5.25,6,L,0.20582014388489206,0.122,0.2331898734177215,0.22140740740740739
6,16,31,1,7,28.791999999999977,14,123,6,3,8,12,28.852999999999977,14.883999999999988,0.6709999999999998,1.3419999999999992,15,19,3,6,124,66,3,7,6,1,72,6,6,L,0.2326854838709677,0.2255151515151515,0.22366666666666665,0.1917142857142857
6,16,32,1,15,9.698999999999993,16,56,16,21,17,49,10.369999999999992,3.3549999999999973,21.044999999999984,0.183,20,9,17,1,60,19,87,1,6,0.5,40,5.5,6,L,0.1728333333333333,0.17657894736842103,0.2418965517241379,0.183
7,1,1,0,5,36.90499999999997,18,158,44,39,14,13,40.25999999999997,6.770999999999995,1.2199999999999993,8.600999999999994,20,17,5,15,175,32,5,37,5,0,22,5.5,6,L,0.23005714285714285,0.21159375,0.244,0.23245945945945945
7,1,2,0,9,22.081999999999983,18,95,62,64,61,35,22.813999999999982,1.2199999999999993,5.7339999999999955,2.8669999999999978,20,6,12,9,100,7,29,14,4,0.5,29,4.25,6,L,0.22813999999999998,0.1742857142857143,0.19772413793103447,0.20478571428571427
7,2,3,0,9,10.186999999999992,16,50,67,15,79,78,13.05399999999999,21.959999999999983,0.427,0.183,20,19,3,2,59,93,3,2,4,0,16,4,6,L,0.2212542372881356,0.23612903225806448,0.14233333333333334,0.0915
7,2,4,0,6,15.310999999999988,17,55,5,10,8,4,15.920999999999987,1.8909999999999987,0.183,5.184999999999996,20,6,1,13,58,7,1,25,6,1,72,6,6,L,0.27449999999999997,0.27014285714285713,0.183,0.20739999999999997
7,3,5,0,1,25.98599999999998,19,126,74,67,65,81,28.974999999999977,4.025999999999997,1.3419999999999992,0.488,20,14,3,3,136,24,3,3,3,0,14,3.5,6,L,0.21305147058823526,0.16774999999999998,0.44733333333333314,0.16266666666666665
7,3,6,0,8,19.275999999999986,18,102,119,34,31,28,20.251999999999985,14.334999999999988,1.2199999999999993,2.683999999999998,20,17,4,9,108,67,5,11,2,0.5,32,4.25,6,L,0.1875185185185185,0.213955223880597,0.244,0.244
7,4,7,0,8,8.600999999999994,16,42,118,113,33,111,15.737999999999989,2.744999999999998,23.48499999999998,0.183,20,13,18,2,71,15,105,2,2,0.5,17,2.75,6,L,0.2216619718309859,0.183,0.22366666666666665,0.0915
7,4,8,0,7,17.018999999999988,20,83,100,45,66,61,31.719999999999978,3.2329999999999974,1.0979999999999994,2.805999999999998,20,13,5,5,148,15,5,6,6,0,15,3.75,6,L,0.2143243243243243,0.2155333333333333,0.2196,0.46766666666666645
7,5,9,0,3,20.739999999999984,19,111,26,113,16,20,22.386999999999983,15.981999999999987,14.151999999999989,7.319999999999994,20,18,18,16,117,62,65,33,5,0,19,4.75,6,L,0.19134188034188032,0.25777419354838704,0.21772307692307688,0.22181818181818178
7,5,10,0,6,20.922999999999984,19,102,2,3,11,43,20.983999999999984,1.9519999999999986,7.014999999999994,0.6709999999999998,20,6,15,4,103,7,31,5,6,0.5,41,5.75,6,L,0.20372815533980582,0.27885714285714286,0.22629032258064513,0.13419999999999999
7,6,11,1,7,21.349999999999984,20,96,1,5,50,56,21.410999999999984,0.6099999999999999,2.9279999999999977,10.125999999999992,20,3,10,15,97,3,11,46,6,0,20,5,6,L,0.22073195876288657,0.20333333333333334,0.26618181818181813,0.22013043478260869
7,6,12,1,15,21.044999999999984,20,102,15,14,24,33,21.105999999999984,9.759999999999993,2.9889999999999977,5.611999999999996,20,18,10,14,103,43,14,15,6,0.5,41,5.75,6,L,0.20491262135922328,0.2269767441860465,0.21349999999999997,0.37413333333333326
7,7,13,1,14,23.85099999999998,19,106,89,87,37,48,24.52199999999998,2.3179999999999983,15.676999999999987,0.7929999999999997,20,8,18,2,111,10,64,2,3,0,16,4,6,L,0.2209189189189189,0.2318,0.244953125,0.39649999999999996
7,7,14,1,11,17.201999999999988,16,71,69,72,76,11,18.970999999999986,4.940999999999996,12.07799999999999,1.0979999999999994,20,12,16,4,81,18,52,4,4,0,17,4.25,6,L,0.23420987654320985,0.27449999999999997,0.23226923076923073,0.27449999999999997
7,8,15,1,13,22.325999999999983,19,104,114,117,9,112,25.55899999999998,0.6099999999999999,12.68799999999999,0.427,20,5,16,5,115,5,52,5,2,0.5,18,3,6,L,0.22225217391304347,0.122,0.24399999999999997,0.0854
7,8,16,1,8,9.210999999999993,16,50,15,107,102,99,38.18599999999997,0.6099999999999999,0.305,0.244,20,4,3,2,163,4,3,2,2,0.5,18,3,6,L,0.2342699386503067,0.1525,0.10166666666666667,0.122
7,9,17,1,3,21.044999999999984,17,82,36,25,31,2,21.593999999999983,1.585999999999999,1.524999999999999,6.953999999999994,20,7,4,12,85,8,5,20,5,0.5,36,5.25,6,L,0.2540470588235294,0.19824999999999998,0.305,0.3476999999999999
7,9,18,1,2,13.48099999999999,20,71,50,51,22,13,14.700999999999988,5.855999999999995,6.770999999999995,3.2939999999999974,20,15,17,11,80,25,31,15,4,0,20,5,6,L,0.18376249999999997,0.23423999999999998,0.21841935483870967,0.2196
7,10,19,1,3,13.35899999999999,16,61,33,107,73,52,14.273999999999988,4.635999999999997,3.781999999999997,0.244,19,13,14,1,64,25,18,1,5,0,14,3.5,6,L,0.22303125,0.18544,0.2101111111111111,0.244
7,10,20,1,11,23.240999999999982,20,111,63,67,13,24,25.80299999999998,2.1959999999999984,3.1109999999999975,4.025999999999997,20,6,8,10,121,9,12,13,4,0,20,5,6,L,0.2132479338842975,0.24399999999999997,0.25925,0.3096923076923076
7,11,21,1,14,20.495999999999984,17,106,94,92,85,93,21.898999999999983,0.488,0.122,2.500999999999998,20,3,1,9,114,3,1,13,3,1,36,3,6,L,0.19209649122807015,0.16266666666666665,0.122,0.19238461538461538
7,11,22,1,12,26.04699999999998,16,120,3,113,115,80,57.58399999999995,0.122,0.183,0.122,20,1,1,1,252,1,1,1,5,0,13,3.25,6,L,0.2285079365079365,0.122,0.183,0.122
7,12,23,1,2,8.905999999999993,17,48,53,56,52,90,10.308999999999992,1.2809999999999993,0.9149999999999996,0.5489999999999999,20,5,3,1,56,5,5,1,4,0.5,27,3.75,6,L,0.1840892857142857,0.2562,0.183,0.5489999999999999
7,12,24,1,11,21.105999999999984,20,106,72,62,61,28,21.837999999999983,2.683999999999998,3.1719999999999975,11.650999999999991,20,11,13,15,112,14,17,44,4,0.5,29,4.25,6,L,0.19498214285714285,0.19171428571428567,0.18658823529411764,0.2647954545454545
7,13,25,1,7,24.58299999999998,17,115,2,8,7,4,24.82699999999998,3.4159999999999973,1.2199999999999993,6.160999999999995,18,8,4,13,116,12,4,25,6,1,72,6,6,L,0.21402586206896548,0.2846666666666666,0.3049999999999999,0.24643999999999996
7,13,26,1,11,24.88799999999998,19,119,13,20,107,71,76.98199999999994,4.7579999999999965,0.183,0.6709999999999998,20,15,1,4,341,21,1,4,4,0,18,4.5,6,L,0.22575366568914954,0.22657142857142856,0.183,0.16775
7,14,27,1,15,27.632999999999978,19,116,13,15,14,55,28.547999999999977,1.2199999999999993,11.406999999999991,4.940999999999996,20,5,15,12,119,5,49,19,6,0.5,40,5.5,6,L,0.23989915966386552,0.24399999999999997,0.23279591836734692,0.26005263157894737
7,14,28,1,12,40.68699999999997,17,179,42,48,1,62,41.05299999999997,2.3179999999999983,12.87099999999999,0.305,19,10,18,2,181,11,50,2,5,0,20,5,6,L,0.22681215469613258,0.2107272727272727,0.25742,0.1525
7,15,29,1,12,29.645999999999976,19,136,48,45,100,104,29.706999999999976,10.979999999999992,1.9519999999999986,7.685999999999994,20,17,9,12,137,56,11,21,5,0,14,3.5,6,L,0.21683941605839413,0.19607142857142856,0.17745454545454545,0.3659999999999999
7,15,30,1,3,35.379999999999974,20,149,30,36,29,94,36.05099999999997,0.7319999999999998,0.7929999999999997,3.2329999999999974,20,5,6,7,152,5,6,11,5,0.5,33,4.5,6,L,0.23717763157894733,0.1464,0.13216666666666665,0.2939090909090909
7,16,31,1,7,7.441999999999994,12,39,4,3,7,59,7.685999999999994,13.663999999999989,0.061,1.7689999999999988,14,15,1,5,41,52,1,6,6,0.5,40,5.5,6,L,0.18746341463414634,0.26276923076923075,0.061,0.29483333333333334
7,16,32,1,11,47.57999999999996,16,205,66,65,77,97,50.81299999999996,0.122,1.3419999999999992,2.0129999999999986,20,1,7,6,218,1,8,11,4,0,13,3.25,6,L,0.23308715596330273,0.122,0.16775,0.183
8,1,1,0,9,20.129999999999985,20,97,71,64,72,70,20.922999999999984,4.6969999999999965,0.305,0.305,20,11,2,2,100,16,2,2,4,1,48,4,6,L,0.20922999999999997,0.29356249999999995,0.1525,0.1525
8,1,2,0,1,25.25399999999998,20,112,76,82,57,81,27.327999999999978,0.122,6.587999999999995,4.940999999999996,20,1,14,14,121,1,32,32,3,0.5,22,3.25,6,L,0.22585123966942144,0.122,0.20587499999999997,0.15440625
8,2,3,0,9,31.719999999999974,20,150,85,71,63,26,33.122999999999976,0.305,0.122,2.8669999999999978,20,1,1,7,154,1,2,10,4,0,16,4,6,L,0.21508441558441557,0.305,0.061,0.28669999999999995
8,2,4,0,6,24.33899999999998,18,113,6,7,84,10,24.39999999999998,5.367999999999996,6.526999999999995,2.1349999999999985,19,10,14,6,114,19,27,7,6,0.5,39,5.25,6,L,0.21403508771929822,0.2825263157894736,0.24174074074074073,0.305
8,3,5,0,7,30.865999999999975,20,135,19,24,34,14,32.81799999999998,1.2809999999999993,4.940999999999996,4.147999999999997,20,6,10,11,145,7,22,20,6,0.5,41,5.75,6,L,0.2263310344827586,0.183,0.22459090909090906,0.20739999999999997
8,3,6,0,2,42.33399999999997,15,189,60,56,9,79,43.37099999999997,1.585999999999999,0.305,4.574999999999997,20,5,2,11,195,6,2,20,4,0,17,4.25,6,L,0.2224153846153846,0.2643333333333333,0.1525,0.22874999999999998
8,4,7,0,7,17.384999999999987,18,89,14,19,23,24,17.506999999999987,1.2199999999999993,2.0129999999999986,3.720999999999997,20,6,11,10,91,6,12,16,6,1,72,6,6,L,0.19238461538461538,0.2033333333333333,0.16774999999999995,0.23256249999999995
8,4,8,0,9,21.593999999999983,20,100,67,62,69,6,22.142999999999983,4.6969999999999965,5.306999999999996,3.2939999999999974,20,13,12,9,105,22,24,16,4,0.5,30,4.5,6,L,0.21088571428571426,0.2135,0.221125,0.205875
8,5,9,0,9,24.09499999999998,19,118,63,71,70,109,27.02299999999998,0.9149999999999996,1.8909999999999987,8.417999999999994,20,4,8,14,131,4,13,37,4,0.5,26,3.5,6,L,0.2062824427480916,0.22874999999999995,0.14546153846153845,0.22751351351351348
8,5,10,0,5,10.613999999999992,20,64,40,44,42,103,11.101999999999991,1.463999999999999,3.537999999999997,5.672999999999996,20,6,8,12,70,8,15,21,5,0.5,32,4.25,6,L,0.1586,0.18299999999999997,0.23586666666666664,0.27014285714285713
8,6,11,1,7,15.493999999999987,16,72,4,6,7,35,15.554999999999987,4.025999999999997,0.9149999999999996,4.086999999999997,17,9,3,12,73,12,4,16,6,0.5,41,5.75,6,L,0.21308219178082188,0.3354999999999999,0.22875,0.2554375
8,6,12,1,2,16.469999999999988,18,79,54,14,83,104,24.826999999999984,15.920999999999987,3.537999999999997,1.585999999999999,20,19,10,6,113,75,10,6,4,0,15,3.75,6,L,0.2197079646017699,0.21228,0.3537999999999999,0.26433333333333325
8,7,13,1,7,15.188999999999988,19,72,9,8,6,77,15.249999999999988,7.807999999999994,1.0979999999999994,1.1589999999999994,20,17,6,3,73,37,7,3,6,0.5,39,5.25,6,L,0.20890410958904107,0.211027027027027,0.15685714285714286,0.38633333333333325
8,7,14,1,15,18.299999999999986,15,100,17,14,23,19,18.360999999999986,9.942999999999993,0.061,2.561999999999998,16,17,1,9,101,49,1,12,6,1,72,6,6,L,0.1817920792079208,0.20291836734693877,0.061,0.2135
8,8,15,1,11,15.188999999999988,20,74,65,61,68,78,16.774999999999988,3.476999999999997,5.977999999999995,0.366,20,11,15,1,81,14,37,1,4,0.5,27,3.75,6,L,0.20709876543209874,0.24835714285714283,0.16156756756756757,0.366
8,8,16,1,2,62.09799999999995,15,274,56,51,88,55,62.28099999999995,2.500999999999998,13.663999999999989,0.9759999999999995,17,8,18,5,277,10,57,5,4,0.5,27,3.75,6,L,0.224841155234657,0.2501,0.239719298245614,0.19519999999999998
8,9,17,1,7,11.284999999999991,18,47,4,10,5,6,19.763999999999985,0.9759999999999995,2.683999999999998,1.9519999999999986,20,4,7,6,81,4,8,6,6,1,72,6,6,L,0.24399999999999997,0.24399999999999994,0.3354999999999999,0.32533333333333325
8,9,18,1,3,56.729999999999954,15,244,14,119,32,88,89.97499999999994,0.061,0.061,0.244,20,1,1,2,366,1,1,2,5,0,16,4,6,L,0.24583333333333326,0.061,0.061,0.122
8,10,19,1,7,22.569999999999983,18,91,2,6,5,3,25.61999999999998,0.7319999999999998,1.4029999999999991,0.305,20,5,4,2,106,5,4,2,6,1,72,6,6,L,0.24169811320754717,0.1464,0.3507499999999999,0.1525
8,10,20,1,15,22.935999999999982,20,109,21,23,17,15,22.996999999999982,1.7079999999999989,0.061,4.269999999999997,20,10,1,14,110,10,1,23,6,1,72,6,6,L,0.20906363636363634,0.1708,0.061,0.18565217391304345
8,11,21,1,14,50.75199999999996,18,255,86,93,92,15,50.87399999999996,4.147999999999997,0.366,6.526999999999995,19,12,4,12,256,15,4,28,3,0.5,24,3.75,6,L,0.1987265625,0.2765333333333333,0.0915,0.23310714285714282
8,11,22,1,1,16.774999999999988,20,82,83,80,73,81,16.835999999999988,0.305,2.439999999999998,3.2939999999999974,20,3,6,11,83,3,7,14,3,1,36,3,6,L,0.20284337349397588,0.10166666666666667,0.3485714285714285,0.23528571428571426
8,12,23,1,8,41.72399999999997,14,195,100,32,16,13,41.96799999999997,5.916999999999995,8.234999999999994,5.367999999999996,16,15,15,15,197,25,33,20,2,0,19,4.75,6,L,0.21303553299492384,0.23667999999999997,0.24954545454545451,0.26839999999999997
8,12,24,1,1,18.055999999999987,20,83,1,76,115,117,51.42299999999996,2.744999999999998,0.122,0.061,20,8,1,1,214,10,1,1,3,0,13,3.25,6,L,0.24029439252336446,0.27449999999999997,0.122,0.061
8,13,25,1,15,47.76299999999996,15,194,21,45,62,42,50.62999999999996,11.162999999999991,0.5489999999999999,2.439999999999998,20,16,4,9,204,43,4,13,6,0,20,5,6,L,0.2481862745098039,0.2596046511627907,0.13724999999999998,0.18769230769230769
8,13,26,1,1,10.308999999999992,17,51,80,73,84,1,10.857999999999992,5.7339999999999955,1.7689999999999988,42.33399999999997,19,15,6,16,53,22,7,176,3,0.5,24,3.75,6,L,0.20486792452830188,0.2606363636363636,0.25271428571428567,0.24053409090909086
8,14,27,1,12,53.86299999999996,15,238,1,48,47,37,58.68199999999995,0.5489999999999999,0.366,4.452999999999997,20,2,3,10,256,2,3,15,5,0.5,36,5.25,6,L,0.22922656249999998,0.27449999999999997,0.122,0.2968666666666666
8,14,28,1,13,27.449999999999978,20,130,118,111,18,77,30.072999999999976,2.683999999999998,8.295999999999994,0.6709999999999998,20,5,14,3,144,5,28,3,2,0,13,3.25,6,L,0.20884027777777775,0.5367999999999997,0.29628571428571426,0.22366666666666665
8,15,29,1,7,18.360999999999986,16,99,29,9,7,71,22.142999999999983,0.5489999999999999,6.953999999999994,5.001999999999996,20,4,15,14,113,4,28,22,6,0,21,5.25,6,L,0.19595575221238937,0.13724999999999998,0.24835714285714283,0.22736363636363635
8,15,30,1,2,16.652999999999988,19,69,53,55,60,105,16.957999999999988,1.8299999999999987,1.2809999999999993,6.8929999999999945,20,5,4,13,71,5,4,21,4,0.5,26,3.5,6,L,0.2388450704225352,0.366,0.32025,0.3282380952380952
8,16,31,1,1,26.47399999999998,18,113,73,81,55,26,28.974999999999977,0.6099999999999999,2.683999999999998,2.1349999999999985,20,3,10,11,123,3,14,14,3,0,15,3.75,6,L,0.23556910569105688,0.20333333333333334,0.1917142857142857,0.1525
8,16,32,1,8,13.35899999999999,17,56,97,95,105,107,17.079999999999988,22.386999999999983,0.061,4.7579999999999965,20,19,1,14,67,94,1,24,2,0.5,15,2.25,6,L,0.25492537313432834,0.23815957446808508,0.061,0.19824999999999998
9,1,1,0,1,18.604999999999986,19,87,83,80,73,32,20.922999999999984,0.488,2.561999999999998,6.343999999999995,20,2,9,13,97,2,10,25,3,0.5,23,3.5,6,L,0.21570103092783505,0.244,0.25619999999999993,0.25376
9,1,2,0,5,14.334999999999988,18,59,47,48,46,15,14.944999999999988,2.9889999999999977,1.8909999999999987,0.488,20,9,8,2,62,10,9,3,5,0.5,36,5.25,6,L,0.24104838709677417,0.2989,0.2101111111111111,0.16266666666666665
9,2,3,0,6,13.41999999999999,14,56,2,3,10,77,13.48099999999999,1.463999999999999,5.123999999999996,5.428999999999996,15,7,13,13,57,7,24,24,6,0.5,39,5.25,6,L,0.23650877192982456,0.20914285714285713,0.2135,0.22620833333333332
9,2,4,0,7,22.996999999999982,20,121,14,22,18,24,23.057999999999982,8.112999999999994,0.244,0.061,20,16,1,1,122,37,1,1,6,1,72,6,6,L,0.189,0.21927027027027024,0.244,0.061
9,3,5,0,9,33.732999999999976,20,151,62,64,61,90,34.037999999999975,0.366,1.9519999999999986,3.2939999999999974,20,3,6,9,155,3,7,15,4,0.5,27,3.75,6,L,0.21959999999999996,0.122,0.27885714285714286,0.2196
9,3,6,0,1,14.029999999999989,19,77,75,8,6,83,19.580999999999985,10.308999999999992,23.97299999999998,3.2939999999999974,20,15,18,10,101,28,114,12,3,0,18,4.5,6,L,0.19387128712871285,0.36817857142857136,0.2102894736842105,0.27449999999999997
9,4,7,0,8,16.896999999999988,19,75,120,115,112,47,17.811999999999987,0.427,0.5489999999999999,9.271999999999993,20,2,2,14,79,2,2,35,2,0.5,17,2.75,6,L,0.2254683544303797,0.2135,0.27449999999999997,0.2649142857142857
9,4,8,0,7,22.935999999999982,14,110,14,16,20,22,23.057999999999982,0.7319999999999998,1.8909999999999987,0.061,16,3,6,1,112,3,7,1,6,1,72,6,6,L,0.20587499999999997,0.24399999999999997,0.27014285714285713,0.061
9,5,9,0,3,31.048999999999975,14,122,14,33,30,75,47.76299999999996,0.305,0.122,0.183,20,2,1,2,187,2,1,2,5,0,19,4.75,6,L,0.25541711229946523,0.1525,0.122,0.0915
9,5,10,0,5,19.580999999999985,13,90,41,44,50,87,26.22999999999998,3.720999999999997,4.269999999999997,11.77299999999999,20,9,12,15,117,14,14,47,5,0,17,4.25,6,L,0.22418803418803415,0.26578571428571424,0.30499999999999994,0.25048936170212766
9,6,11,1,7,17.079999999999988,19,77,4,3,5,8,23.057999999999982,0.183,0.122,2.1349999999999985,20,1,1,7,100,1,1,8,6,1,72,6,6,L,0.23057999999999998,0.183,0.122,0.266875
9,6,12,1,13,53.25299999999996,12,216,118,115,32,114,57.64499999999995,0.244,5.062999999999996,0.7929999999999997,20,2,14,1,238,2,21,1,2,0.5,17,2.75,6,L,0.24220588235294116,0.122,0.24109523809523808,0.7929999999999997
9,7,13,1,14,18.787999999999986,20,85,93,47,41,16,19.702999999999985,3.9649999999999967,9.515999999999993,1.9519999999999986,20,12,16,9,90,16,30,10,3,0,19,4.75,6,L,0.2189222222222222,0.24781249999999996,0.3171999999999999,0.19519999999999996
9,7,14,1,2,20.495999999999984,18,92,56,54,55,30,20.678999999999984,0.9149999999999996,2.2569999999999983,7.685999999999994,19,5,8,14,93,5,10,33,4,0.5,29,4.25,6,L,0.2223548387096774,0.183,0.22569999999999998,0.23290909090909087
9,8,15,1,1,27.327999999999978,20,151,74,116,27,64,28.242999999999977,3.903999999999997,3.781999999999997,0.9149999999999996,20,8,12,6,155,10,17,6,3,0,14,3.5,6,L,0.18221290322580644,0.3903999999999999,0.2224705882352941,0.1525
9,8,16,1,12,54.777999999999956,13,255,40,19,17,13,56.302999999999955,6.648999999999995,3.9649999999999967,18.238999999999987,18,14,11,17,261,27,17,84,5,0.5,41,5.75,6,L,0.21572030651340995,0.24625925925925923,0.23323529411764704,0.21713095238095237
9,9,17,1,15,61.12199999999995,17,232,23,20,17,75,62.21999999999995,4.513999999999997,2.683999999999998,1.0369999999999995,20,10,8,3,237,15,11,3,6,0.5,39,5.25,6,L,0.2625316455696202,0.3009333333333333,0.24399999999999994,0.3456666666666666
9,9,18,1,7,27.388999999999978,15,129,1,3,50,10,27.449999999999978,2.0739999999999985,5.001999999999996,1.2809999999999993,16,9,10,4,130,12,17,4,6,0.5,40,5.5,6,L,0.21115384615384614,0.17283333333333334,0.29423529411764704,0.3202499999999999
9,10,19,1,12,28.425999999999977,17,141,15,77,39,40,51.72799999999996,0.061,0.061,0.122,20,1,1,2,229,1,1,2,5,0,19,4.75,6,L,0.22588646288209607,0.061,0.061,0.061
9,10,20,1,3,28.791999999999977,18,137,4,94,50,26,54.472999999999956,0.061,0.8539999999999996,1.8299999999999987,20,1,2,7,241,1,3,8,5,0,18,4.5,6,L,0.22602904564315351,0.061,0.2846666666666667,0.22874999999999993
9,11,21,1,14,52.03299999999996,15,207,94,101,91,90,59.47499999999995,0.244,0.7319999999999998,0.122,20,2,3,1,241,2,3,1,3,0.5,20,2.75,6,L,0.2467842323651452,0.122,0.24399999999999997,0.122
9,11,22,1,15,16.40899999999999,20,85,23,14,21,24,16.591999999999988,0.8539999999999996,1.0979999999999994,4.513999999999997,20,2,9,12,86,2,10,15,6,1,72,6,6,L,0.19293023255813951,0.427,0.1098,0.3009333333333333
9,12,23,1,2,14.395999999999988,14,59,59,50,19,13,16.34799999999999,7.990999999999993,16.40899999999999,2.561999999999998,20,16,17,11,69,29,69,11,4,0,20,5,6,L,0.236927536231884,0.275551724137931,0.23781159420289852,0.23290909090909087
9,12,24,1,11,28.242999999999977,17,140,71,72,92,32,28.730999999999977,1.9519999999999986,6.343999999999995,1.0369999999999995,20,8,14,3,143,10,25,4,4,0,16,4,6,L,0.2009160839160839,0.19519999999999998,0.25376,0.2592499999999999
9,13,25,1,14,16.896999999999988,20,84,87,92,90,15,26.839999999999982,1.2809999999999993,0.7929999999999997,4.452999999999997,20,6,4,11,134,6,4,16,3,0.5,24,3.75,6,L,0.20029850746268654,0.21349999999999997,0.19824999999999998,0.27831249999999996
9,13,26,1,2,23.85099999999998,20,122,52,36,8,2,23.97299999999998,13.48099999999999,0.8539999999999996,35.440999999999974,20,16,6,17,123,57,6,134,4,0,21,5.25,6,L,0.19490243902439022,0.23650877192982456,0.14233333333333334,0.2644850746268656
9,14,27,1,11,26.96199999999998,13,131,91,115,109,95,31.353999999999974,7.624999999999994,9.881999999999993,3.0499999999999976,20,12,17,9,148,21,43,17,4,0,10,2.5,6,L,0.21185135135135133,0.363095238095238,0.22981395348837205,0.17941176470588235
9,14,28,1,1,31.231999999999974,19,146,76,60,44,81,33.610999999999976,2.683999999999998,2.0739999999999985,1.1589999999999994,20,10,10,4,158,11,12,5,3,0,15,3.75,6,L,0.2127278481012658,0.24399999999999997,0.17283333333333334,0.23179999999999998
9,15,29,1,13,34.342999999999975,20,157,120,110,109,39,34.647999999999975,2.683999999999998,1.2809999999999993,3.537999999999997,20,10,6,6,159,12,6,7,2,0.5,17,2.75,6,L,0.21791194968553457,0.22366666666666665,0.21349999999999997,0.5054285714285713
9,15,30,1,14,60.14599999999995,10,234,50,18,17,85,61.48799999999995,11.528999999999991,31.536999999999974,0.183,15,16,18,2,240,46,135,2,3,0,19,4.75,6,L,0.2562,0.25063043478260866,0.23360740740740737,0.0915
10,1,1,0,5,17.750999999999987,19,76,37,46,44,38,20.373999999999985,0.122,0.6099999999999999,2.744999999999998,20,1,3,8,89,1,3,11,5,1,60,5,6,L,0.22892134831460673,0.122,0.20333333333333334,0.24954545454545454
10,1,2,0,9,36.35599999999997,20,150,63,35,72,27,37.94199999999997,0.5489999999999999,2.683999999999998,4.635999999999997,20,3,12,10,157,4,17,14,4,0,18,4.5,6,L,0.24166878980891715,0.13724999999999998,0.15788235294117647,0.33114285714285707
10,2,3,0,2,7.258999999999994,19,48,1,53,4,60,25.80299999999998,0.122,0.061,0.305,20,2,1,2,127,2,1,2,4,0,20,5,6,L,0.20317322834645668,0.061,0.061,0.1525
10,2,4,0,9,20.983999999999984,20,101,63,108,26,13,21.776999999999983,10.552999999999992,2.8669999999999978,6.038999999999995,20,18,11,14,104,42,13,25,4,0,17,4.25,6,L,0.20939423076923075,0.25126190476190474,0.22053846153846154,0.24155999999999997
10,3,5,0,6,14.517999999999988,20,74,3,6,5,7,17.140999999999988,0.061,1.4029999999999991,1.524999999999999,20,1,6,5,84,1,8,5,6,1,72,6,6,L,0.2040595238095238,0.061,0.175375,0.30499999999999994
10,3,6,0,7,20.068999999999985,19,94,18,24,19,42,20.129999999999985,4.513999999999997,14.822999999999988,30.438999999999975,20,12,15,16,95,20,55,127,6,0.5,41,5.75,6,L,0.21189473684210525,0.22569999999999998,0.26950909090909086,0.23967716535433067
10,4,7,0,5,22.508999999999983,20,124,37,45,1,3,23.240999999999982,0.122,17.506999999999987,0.5489999999999999,20,1,18,4,128,1,66,4,5,0,22,5.5,6,L,0.1815703125,0.122,0.26525757575757575,0.13724999999999998
10,4,8,0,3,39.40599999999997,12,166,28,36,51,16,42.82199999999997,2.500999999999998,0.244,5.7949999999999955,20,9,1,12,188,11,1,20,5,0,20,5,6,L,0.22777659574468082,0.22736363636363635,0.244,0.28974999999999995
10,5,9,0,1,17.262999999999987,20,82,74,78,77,29,18.970999999999986,1.1589999999999994,3.1109999999999975,0.488,20,4,8,2,92,5,12,2,3,0.5,23,3.5,6,L,0.20620652173913043,0.23179999999999995,0.25925,0.244
10,5,10,0,4,58.49899999999995,12,264,98,69,22,17,59.90199999999995,1.2199999999999993,9.637999999999993,1.2199999999999993,15,5,16,4,268,7,45,4,2,0,18,4.5,6,L,0.2235149253731343,0.1742857142857143,0.21417777777777774,0.305
10,6,11,1,12,33.732999999999976,20,142,38,22,17,50,38.06399999999997,10.369999999999992,0.061,2.8669999999999978,20,18,1,6,165,51,1,9,5,0,21,5.25,6,L,0.23069090909090906,0.2033333333333333,0.061,0.31855555555555554
10,6,12,1,11,15.371999999999987,20,79,68,9,2,5,20.129999999999985,38.18599999999997,8.112999999999994,20.434999999999985,20,19,17,17,97,153,33,98,4,0.5,40,5.5,6,L,0.20752577319587626,0.2495816993464052,0.24584848484848484,0.2085204081632653
10,7,13,1,2,29.096999999999976,17,141,50,59,54,109,31.475999999999974,1.8909999999999987,0.5489999999999999,5.7339999999999955,20,8,2,14,148,10,2,25,4,0.5,26,3.5,6,L,0.21267567567567566,0.1891,0.27449999999999997,0.22935999999999998
10,7,14,1,8,10.003999999999992,19,51,104,89,67,105,24.70499999999998,8.173999999999994,5.062999999999996,2.9279999999999977,20,12,15,12,124,25,26,15,2,0,11,2.75,6,L,0.19923387096774192,0.3269599999999999,0.1947307692307692,0.19519999999999998
10,8,15,1,3,16.40899999999999,20,78,69,117,118,72,32.87899999999998,0.061,1.8299999999999987,1.524999999999999,20,1,5,4,156,1,6,4,5,0,12,3,6,L,0.2107628205128205,0.061,0.30499999999999994,0.38124999999999987
10,8,16,1,2,16.10399999999999,20,79,53,60,48,105,16.28699999999999,1.9519999999999986,8.661999999999994,1.524999999999999,20,9,16,4,82,9,43,4,4,0,15,3.75,6,L,0.19862195121951218,0.21688888888888885,0.20144186046511628,0.3812499999999999
10,9,17,1,14,14.273999999999988,18,76,89,120,86,31,15.310999999999988,9.515999999999993,0.244,9.149999999999993,20,15,2,15,81,42,2,32,3,0,13,3.25,6,L,0.1890246913580247,0.22657142857142856,0.122,0.28593749999999996
10,9,18,1,11,26.35199999999998,16,126,69,47,65,71,28.364999999999977,2.1959999999999984,2.622999999999998,0.061,20,7,9,1,137,9,10,1,4,0.5,29,4.25,6,L,0.20704379562043795,0.24399999999999997,0.2623,0.061
10,10,19,1,11,8.844999999999994,19,40,37,77,79,103,20.739999999999984,16.28699999999999,1.2199999999999993,1.2809999999999993,20,16,7,4,83,63,7,4,4,0,13,3.25,6,L,0.24987951807228914,0.2585238095238095,0.1742857142857143,0.32024999999999987
10,10,20,1,2,18.848999999999986,18,87,112,92,31,29,25.80299999999998,0.9759999999999995,1.646999999999999,9.759999999999993,20,3,5,14,120,3,7,51,4,0,15,3.75,6,L,0.215025,0.32533333333333325,0.23528571428571426,0.19137254901960782
10,11,21,1,11,22.691999999999982,19,90,64,62,36,2,24.70499999999998,4.7579999999999965,5.7339999999999955,0.244,20,11,14,1,97,17,27,1,4,0,19,4.75,6,L,0.25469072164948453,0.27988235294117647,0.21237037037037035,0.244
10,11,22,1,15,12.87099999999999,19,64,15,16,19,24,26.53499999999998,0.183,0.061,0.488,20,1,1,2,123,1,1,3,6,1,72,6,6,L,0.21573170731707314,0.183,0.061,0.16266666666666665
10,12,23,1,7,12.74899999999999,17,71,1,7,10,46,12.87099999999999,5.489999999999996,2.8669999999999978,0.9149999999999996,19,13,12,4,73,23,14,5,6,0.5,41,5.75,6,L,0.17631506849315068,0.238695652173913,0.2047857142857143,0.183
10,12,24,1,15,31.353999999999974,15,149,21,13,31,66,31.536999999999974,6.221999999999995,1.1589999999999994,1.9519999999999986,17,13,6,4,151,27,9,8,6,0,21,5.25,6,L,0.20885430463576157,0.23044444444444442,0.12877777777777777,0.24399999999999994
10,13,25,1,15,18.299999999999986,16,90,18,22,15,24,20.617999999999984,0.9759999999999995,2.805999999999998,2.744999999999998,20,5,12,9,100,5,14,11,6,1,72,6,6,L,0.20617999999999997,0.19519999999999998,0.20042857142857143,0.24954545454545451
10,13,26,1,8,21.166999999999984,20,107,105,103,100,8,25.19299999999998,1.8299999999999987,0.8539999999999996,0.5489999999999999,20,8,2,3,124,9,2,3,2,0.5,18,3,6,L,0.20316935483870965,0.20333333333333334,0.4269999999999999,0.183
10,14,27,1,15,7.075999999999994,18,38,13,21,15,14,8.783999999999994,0.183,1.8299999999999987,0.122,20,3,9,2,45,3,10,2,6,1,72,6,6,L,0.19519999999999998,0.061,0.183,0.061
10,14,28,1,7,21.166999999999984,18,107,11,43,8,3,21.837999999999983,6.221999999999995,1.8299999999999987,4.086999999999997,20,14,3,12,110,26,3,22,6,0.5,41,5.75,6,L,0.19852727272727272,0.23930769230769228,0.6099999999999998,0.18577272727272726
10,15,29,1,3,49.83699999999996,13,218,29,28,27,32,52.39899999999996,2.9279999999999977,3.781999999999997,19.031999999999986,20,6,11,16,230,7,19,78,5,1,60,5,6,L,0.22782173913043477,0.4182857142857142,0.19905263157894737,0.24399999999999997
10,15,30,1,15,16.04299999999999,20,76,18,21,22,24,18.238999999999987,1.7689999999999988,0.122,1.463999999999999,20,4,2,7,86,4,2,7,6,1,72,6,6,L,0.2120813953488372,0.4422499999999998,0.061,0.20914285714285713
10,16,31,1,14,55.997999999999955,15,243,49,33,99,13,76.98199999999994,0.9759999999999995,5.7949999999999955,53.61899999999996,20,5,13,17,325,6,17,211,3,0,17,4.25,6,L,0.23686769230769228,0.16266666666666665,0.3408823529411764,0.25411848341232224
10,16,32,1,11,27.693999999999978,18,140,47,67,62,113,28.791999999999977,0.366,5.550999999999996,1.8909999999999987,20,2,15,9,144,2,26,11,4,0,15,3.75,6,L,0.19994444444444442,0.183,0.21349999999999997,0.1719090909090909
11,1,1,0,3,25.74199999999998,20,111,26,3,25,5,26.04699999999998,17.567999999999987,7.990999999999993,2.1349999999999985,20,18,16,7,112,72,29,7,5,0,22,5.5,6,L,0.23256249999999998,0.24399999999999997,0.27555172413793094,0.305
11,1,2,0,10,28.547999999999977,20,124,90,55,92,96,34.098999999999975,2.0129999999999986,2.0129999999999986,0.6099999999999999,20,6,8,4,154,6,10,5,3,0.5,22,3.25,6,L,0.2214220779220779,0.33549999999999996,0.20129999999999995,0.122
11,2,3,0,5,30.438999999999975,18,133,47,39,14,88,30.499999999999975,0.488,5.611999999999996,2.0739999999999985,19,4,11,5,134,4,22,5,5,0,19,4.75,6,L,0.22761194029850743,0.122,0.25509090909090903,0.41479999999999995
11,2,4,0,3,15.676999999999987,18,80,108,4,84,107,24.70499999999998,10.613999999999992,0.488,0.122,20,18,3,2,126,49,3,2,5,0,13,3.25,6,L,0.19607142857142856,0.21661224489795913,0.16266666666666665,0.061
11,3,5,0,10,21.715999999999983,20,122,93,55,103,97,23.60699999999998,3.598999999999997,3.476999999999997,3.2939999999999974,20,7,8,9,129,12,13,10,3,0,11,2.75,6,L,0.183,0.2999166666666666,0.2674615384615385,0.3293999999999999
11,3,6,0,8,29.767999999999976,19,144,118,111,116,109,30.682999999999975,0.6099999999999999,1.3419999999999992,1.3419999999999992,20,3,6,5,149,3,6,5,2,1,24,2,6,L,0.20592617449664427,0.20333333333333334,0.22366666666666665,0.26839999999999997
11,4,7,0,7,15.859999999999987,17,82,14,18,21,45,15.920999999999987,1.463999999999999,3.3549999999999973,11.77299999999999,18,5,9,16,83,8,13,49,6,0.5,41,5.75,6,L,0.19181927710843374,0.183,0.25807692307692304,0.24026530612244895
11,4,8,0,6,30.072999999999976,15,136,11,8,1,7,31.963999999999974,2.2569999999999983,0.122,0.061,20,5,1,1,143,5,1,1,6,1,72,6,6,L,0.2235244755244755,0.45139999999999986,0.122,0.061
11,5,9,0,6,16.713999999999988,19,101,2,7,12,10,17.018999999999988,0.5489999999999999,0.183,11.223999999999991,20,3,2,17,103,3,2,44,6,1,72,6,6,L,0.16523300970873786,0.183,0.0915,0.25509090909090903
11,5,10,0,7,13.785999999999989,14,65,14,16,18,113,15.005999999999988,2.805999999999998,10.430999999999992,0.183,18,11,15,1,70,15,39,1,6,0.5,38,5,6,L,0.21437142857142855,0.18706666666666666,0.2674615384615384,0.183
11,6,11,1,14,13.785999999999989,17,69,85,119,89,19,28.547999999999977,0.366,0.6099999999999999,1.2809999999999993,20,2,5,7,130,3,5,7,3,0,14,3.5,6,L,0.2196,0.122,0.122,0.183
11,6,12,1,7,16.774999999999988,19,87,8,5,7,6,17.262999999999987,2.622999999999998,2.8669999999999978,1.8299999999999987,20,7,9,6,93,9,13,6,6,1,72,6,6,L,0.18562365591397847,0.2914444444444444,0.22053846153846152,0.305
11,7,13,1,3,14.456999999999988,20,78,28,35,108,4,14.944999999999988,5.7339999999999955,22.752999999999982,0.061,20,12,16,1,80,19,92,1,5,0,18,4.5,6,L,0.1868125,0.3017894736842105,0.24731521739130433,0.061
11,7,14,1,12,21.959999999999983,18,92,43,40,47,24,25.37599999999998,1.463999999999999,0.427,0.366,20,7,3,3,107,9,3,3,5,0.5,36,5.25,6,L,0.23715887850467288,0.16266666666666665,0.14233333333333334,0.122
11,8,15,1,7,13.602999999999989,19,66,10,3,9,30,17.018999999999988,2.9889999999999977,0.061,7.502999999999994,20,8,1,14,77,16,1,32,6,0.5,41,5.75,6,L,0.22102597402597401,0.1868125,0.061,0.23446874999999995
11,8,16,1,2,23.362999999999982,18,99,55,59,57,93,26.65699999999998,0.305,3.659999999999997,1.4029999999999991,20,3,12,3,115,3,17,3,4,0.5,27,3.75,6,L,0.23179999999999998,0.10166666666666667,0.2152941176470588,0.46766666666666656
11,9,17,1,7,10.430999999999992,19,63,7,2,1,6,10.735999999999992,2.622999999999998,1.0369999999999995,0.244,20,8,4,2,64,8,4,3,6,1,72,6,6,L,0.16774999999999998,0.3278749999999999,0.25925,0.08133333333333333
11,9,18,1,1,35.074999999999974,18,142,77,74,35,19,35.196999999999974,0.7319999999999998,1.8909999999999987,6.404999999999995,19,3,7,14,143,4,10,27,3,0,17,4.25,6,L,0.2461328671328671,0.183,0.1891,0.2372222222222222
11,10,19,1,12,16.469999999999988,18,84,1,67,118,92,79.78799999999994,0.6099999999999999,0.427,0.122,20,2,4,1,356,3,4,1,5,0,15,3.75,6,L,0.22412359550561795,0.20333333333333334,0.10675,0.122
11,10,20,1,15,13.54199999999999,18,58,15,20,18,25,14.883999999999988,0.061,4.086999999999997,8.783999999999994,20,1,12,15,65,1,19,43,6,0.5,41,5.75,6,L,0.22898461538461537,0.061,0.21510526315789472,0.20427906976744184
11,11,21,1,15,19.641999999999985,20,84,14,17,35,61,19.702999999999985,3.2329999999999974,2.500999999999998,6.8929999999999945,20,10,4,15,85,11,6,35,6,0,21,5.25,6,L,0.23179999999999998,0.2939090909090908,0.4168333333333332,0.19694285714285711
11,11,22,1,7,12.56599999999999,17,59,2,5,12,10,12.99299999999999,2.805999999999998,1.463999999999999,0.488,20,11,7,3,63,15,10,3,6,1,72,6,6,L,0.20623809523809522,0.18706666666666666,0.1464,0.16266666666666665
11,12,23,1,3,15.493999999999987,19,84,2,8,29,35,156.40400000000884,0.305,2.439999999999998,0.061,20,2,5,1,632,2,7,1,5,0,22,5.5,6,L,0.2474746835443037,0.1525,0.3485714285714285,0.061
11,12,24,1,12,31.902999999999974,14,124,48,38,39,13,35.501999999999974,2.744999999999998,6.953999999999994,3.659999999999997,20,8,16,11,146,9,34,17,5,0.5,36,5.25,6,L,0.2431643835616438,0.30499999999999994,0.20452941176470588,0.2152941176470588
11,13,25,1,2,28.486999999999977,12,117,50,57,51,38,28.547999999999977,0.7929999999999997,0.061,11.89499999999999,13,3,1,16,118,4,1,53,4,0.5,29,4.25,6,L,0.24193220338983049,0.19824999999999998,0.061,0.2244339622641509
11,13,26,1,11,15.615999999999987,17,64,70,66,23,62,15.737999999999987,2.439999999999998,13.724999999999989,4.086999999999997,18,12,17,13,65,16,57,20,4,0.5,30,4.5,6,L,0.2421230769230769,0.1525,0.24078947368421053,0.20435
11,14,27,1,7,9.088999999999993,18,42,7,1,3,10,9.332999999999993,14.090999999999989,1.0369999999999995,1.585999999999999,20,19,3,6,44,60,3,6,6,1,72,6,6,L,0.21211363636363637,0.23484999999999998,0.3456666666666666,0.2643333333333333
11,14,28,1,1,14.761999999999988,20,66,81,109,17,74,15.981999999999987,11.89499999999999,2.439999999999998,0.061,20,17,9,1,72,61,12,1,3,0,14,3.5,6,L,0.2219722222222222,0.19499999999999998,0.20333333333333334,0.061
11,15,29,1,2,31.475999999999974,16,134,15,51,16,98,35.196999999999974,1.0979999999999994,3.0499999999999976,10.186999999999992,20,3,11,15,152,4,14,42,4,0,18,4.5,6,L,0.23155921052631578,0.27449999999999997,0.21785714285714286,0.242547619047619
11,15,30,1,14,34.647999999999975,15,145,4,31,27,68,201.78800000001183,0.061,1.524999999999999,1.9519999999999986,20,1,9,6,851,1,9,7,3,0,20,5,6,L,0.23711868390129257,0.061,0.16944444444444445,0.2788571428571428
12,1,1,0,2,15.371999999999987,19,70,60,97,95,53,22.935999999999982,5.550999999999996,1.9519999999999986,1.2809999999999993,20,13,8,3,108,25,10,3,4,0,13,3.25,6,L,0.21237037037037035,0.22204,0.19519999999999998,0.4269999999999998
12,1,2,0,8,24.70499999999998,18,105,118,109,117,113,25.49799999999998,1.9519999999999986,2.744999999999998,1.3419999999999992,20,8,9,7,108,9,11,7,2,1,24,2,6,L,0.23609259259259258,0.21688888888888885,0.24954545454545454,0.1917142857142857
12,2,3,0,7,22.447999999999983,20,105,13,18,39,24,23.60699999999998,14.334999999999988,1.0979999999999994,3.2329999999999974,20,17,1,10,110,60,1,14,6,0.5,41,5.75,6,L,0.2146090909090909,0.2389166666666666,1.0979999999999994,0.2309285714285714
12,2,4,0,9,11.345999999999991,13,54,7,6,8,92,37.94199999999997,6.343999999999995,0.7929999999999997,0.061,20,15,4,1,171,24,4,1,4,0.5,39,5.25,6,L,0.22188304093567252,0.2643333333333333,0.19824999999999998,0.061
12,3,5,0,7,12.87099999999999,16,62,17,14,19,21,13.602999999999989,12.62699999999999,0.305,4.635999999999997,19,17,2,14,65,52,2,23,6,1,72,6,6,L,0.20927692307692305,0.24282692307692305,0.1525,0.20156521739130434
12,3,6,0,1,16.469999999999988,18,72,77,79,55,50,19.275999999999986,0.122,7.746999999999994,0.061,20,2,15,1,84,2,25,1,3,0,14,3.5,6,L,0.22947619047619047,0.061,0.30987999999999993,0.061
12,4,7,0,5,23.54599999999998,20,119,85,108,44,88,30.011999999999976,2.2569999999999983,7.685999999999994,1.0979999999999994,20,7,17,5,144,8,34,6,5,0,13,3.25,6,L,0.20841666666666664,0.282125,0.22605882352941176,0.183
12,4,8,0,9,18.543999999999986,20,84,69,26,67,66,19.946999999999985,10.003999999999992,0.488,0.122,20,15,2,1,92,35,2,1,4,0.5,29,4.25,6,L,0.21681521739130433,0.2858285714285714,0.244,0.122
12,5,9,0,7,22.508999999999983,12,93,19,17,16,39,23.91199999999998,1.585999999999999,11.89499999999999,1.585999999999999,16,6,14,7,99,6,49,7,6,0.5,41,5.75,6,L,0.24153535353535352,0.2643333333333333,0.2427551020408163,0.22657142857142856
12,5,10,0,9,11.345999999999991,17,51,63,71,73,70,12.38299999999999,3.476999999999997,0.427,0.061,20,9,3,1,55,15,3,1,4,0.5,27,3.75,6,L,0.22514545454545454,0.23179999999999998,0.14233333333333334,0.061
12,6,11,1,14,22.020999999999983,20,112,93,90,110,87,26.29099999999998,1.463999999999999,5.489999999999996,2.500999999999998,20,5,15,9,131,6,27,10,3,0.5,20,2.75,6,L,0.20069465648854962,0.244,0.2033333333333333,0.2501
12,6,12,1,11,20.190999999999985,20,104,71,66,40,37,20.800999999999984,2.0739999999999985,2.3179999999999983,3.1719999999999975,20,7,10,6,106,9,12,8,4,0,18,4.5,6,L,0.19623584905660377,0.23044444444444442,0.19316666666666665,0.39649999999999996
12,7,13,1,15,18.482999999999986,14,73,17,18,24,33,18.665999999999986,3.2939999999999974,3.476999999999997,5.001999999999996,17,8,12,14,76,14,13,23,6,0.5,41,5.75,6,L,0.24560526315789472,0.2352857142857143,0.2674615384615384,0.2174782608695652
12,7,14,1,2,28.425999999999977,16,127,52,51,56,43,28.791999999999977,0.061,1.1589999999999994,3.0499999999999976,18,1,3,12,129,1,3,14,4,0.5,29,4.25,6,L,0.22319379844961237,0.061,0.38633333333333325,0.21785714285714286
12,8,15,1,15,32.02499999999998,14,130,23,15,24,27,33.427999999999976,6.953999999999994,5.7339999999999955,0.183,17,13,15,1,134,28,26,1,6,0.5,41,5.75,6,L,0.24946268656716417,0.24835714285714283,0.22053846153846152,0.183
12,8,16,1,11,14.517999999999988,18,68,69,62,37,46,17.140999999999988,2.9889999999999977,14.334999999999988,1.524999999999999,20,9,18,7,80,11,59,9,4,0,18,4.5,6,L,0.2142625,0.2717272727272727,0.24296610169491523,0.16944444444444445
12,9,17,1,1,13.785999999999989,18,61,77,82,74,76,14.029999999999989,0.427,1.7079999999999989,4.208999999999997,20,2,7,11,64,2,8,20,3,1,36,3,6,L,0.21921875,0.2135,0.21349999999999997,0.21045
12,9,18,1,15,22.874999999999982,20,110,13,21,117,18,22.935999999999982,11.101999999999991,2.805999999999998,0.061,20,17,9,1,111,48,11,1,6,0.5,38,5,6,L,0.2066306306306306,0.23129166666666665,0.25509090909090903,0.061
12,10,19,1,7,13.48099999999999,18,69,9,12,6,1,15.554999999999987,0.305,0.122,9.271999999999993,20,3,1,17,75,3,1,38,6,1,72,6,6,L,0.20739999999999997,0.10166666666666667,0.122,0.24399999999999997
12,10,20,1,3,25.37599999999998,19,112,34,30,13,36,25.43699999999998,1.9519999999999986,3.903999999999997,0.9149999999999996,20,9,9,3,113,9,14,5,5,0.5,36,5.25,6,L,0.22510619469026547,0.21688888888888888,0.2788571428571428,0.183
12,11,21,1,11,24.09499999999998,20,118,68,69,71,114,25.68099999999998,1.0369999999999995,6.526999999999995,1.585999999999999,20,7,14,4,124,7,31,4,4,0.5,26,3.5,6,L,0.2071048387096774,0.14814285714285713,0.21054838709677418,0.39649999999999996
12,11,22,1,2,37.39299999999997,16,173,15,99,16,21,115.35100000000153,0.122,0.488,0.061,20,1,4,1,489,1,5,1,4,0.5,38,5,6,L,0.23589161554192226,0.122,0.09759999999999999,0.061
12,12,23,1,12,29.218999999999976,19,138,41,40,38,42,30.194999999999975,2.1959999999999984,1.8299999999999987,6.343999999999995,20,6,3,10,143,7,3,22,5,1,60,5,6,L,0.21115384615384614,0.3137142857142856,0.6099999999999997,0.2883636363636363
12,12,24,1,11,10.552999999999992,19,62,72,3,4,68,14.029999999999989,51.42299999999996,2.1349999999999985,0.6709999999999998,20,19,4,4,82,205,6,4,4,0,20,5,6,L,0.17109756097560974,0.2508439024390244,0.3558333333333332,0.16775
12,13,25,1,1,26.77899999999998,19,122,74,62,42,77,27.693999999999978,11.040999999999991,5.855999999999995,1.2199999999999993,20,16,15,6,127,44,21,6,3,0,15,3.75,6,L,0.21806299212598423,0.25093181818181814,0.2788571428571428,0.20333333333333334
12,13,26,1,7,13.11499999999999,17,55,12,36,1,7,13.846999999999989,5.672999999999996,2.561999999999998,1.0369999999999995,20,12,9,6,60,19,10,7,6,0.5,41,5.75,6,L,0.2307833333333333,0.298578947368421,0.2562,0.14814285714285713
12,14,27,1,8,34.220999999999975,20,170,104,101,66,62,35.501999999999974,0.122,8.051999999999994,3.781999999999997,20,2,15,9,179,2,35,16,2,0,12,3,6,L,0.19833519553072626,0.061,0.23005714285714285,0.23637499999999995
12,14,28,1,2,15.920999999999987,17,69,52,58,51,60,16.10399999999999,2.439999999999998,0.8539999999999996,0.7929999999999997,18,10,3,4,71,10,3,4,4,1,48,4,6,L,0.22681690140845068,0.24399999999999997,0.2846666666666667,0.19824999999999998
12,15,29,1,15,10.369999999999992,15,57,15,21,22,82,10.430999999999992,2.0739999999999985,4.7579999999999965,0.6709999999999998,16,6,10,3,58,8,21,3,6,0.5,39,5.25,6,L,0.1798448275862069,0.25925,0.22657142857142856,0.22366666666666665
12,15,30,1,14,11.406999999999991,18,63,87,91,8,62,17.506999999999987,3.781999999999997,21.715999999999983,0.9149999999999996,20,9,18,4,85,12,80,5,3,0,16,4,6,L,0.20596470588235294,0.31516666666666665,0.27144999999999997,0.183
12,16,31,1,15,19.397999999999985,20,81,16,15,96,22,20.495999999999984,4.208999999999997,3.476999999999997,0.183,20,11,5,2,88,20,10,2,6,0.5,39,5.25,6,L,0.2329090909090909,0.21044999999999997,0.34769999999999995,0.0915
12,16,32,1,12,10.491999999999992,20,60,48,38,46,72,11.467999999999991,0.488,0.5489999999999999,15.127999999999988,20,3,3,17,65,3,3,53,5,0.5,34,4.75,6,L,0.17643076923076922,0.16266666666666665,0.183,0.2854339622641509
13,1,1,0,8,13.29799999999999,17,65,119,112,50,17,17.079999999999988,0.6099999999999999,2.3789999999999982,5.916999999999995,20,6,8,14,84,6,9,23,2,0,14,3.5,6,L,0.20333333333333334,0.10166666666666667,0.26433333333333325,0.2572608695652174
13,1,2,0,9,18.116999999999987,19,93,65,62,64,68,18.360999999999986,0.488,1.7079999999999989,0.9149999999999996,20,2,8,3,94,3,11,3,4,1,48,4,6,L,0.19532978723404254,0.16266666666666665,0.15527272727272726,0.305
13,2,3,0,7,28.669999999999977,19,129,13,17,90,120,28.730999999999977,7.197999999999994,2.805999999999998,0.427,20,13,10,3,130,25,15,3,6,0,17,4.25,6,L,0.2210076923076923,0.28791999999999995,0.18706666666666666,0.14233333333333334
13,2,4,0,6,20.007999999999985,19,102,6,12,11,107,22.386999999999983,0.183,0.8539999999999996,6.465999999999995,20,1,4,16,110,1,4,25,6,0.5,38,5,6,L,0.20351818181818182,0.183,0.2135,0.25864
13,3,5,0,1,25.37599999999998,19,115,2,118,119,4,50.44699999999996,2.3789999999999982,1.1589999999999994,9.027999999999993,20,8,6,17,210,12,6,45,3,0,16,4,6,L,0.2402238095238095,0.19824999999999998,0.19316666666666665,0.2006222222222222
13,3,6,0,10,14.456999999999988,19,73,87,92,94,107,19.214999999999986,5.062999999999996,0.244,1.8299999999999987,20,15,2,3,90,19,2,3,3,0.5,20,2.75,6,L,0.2135,0.26647368421052625,0.122,0.6099999999999999
13,4,7,0,6,18.970999999999986,20,101,2,5,8,41,19.031999999999986,13.41999999999999,0.427,58.13299999999995,20,17,4,16,102,55,4,258,6,0.5,41,5.75,6,L,0.18658823529411764,0.24399999999999997,0.10675,0.22532170542635657
13,4,8,0,9,14.639999999999988,16,71,62,70,88,94,15.188999999999988,0.5489999999999999,9.027999999999993,8.539999999999994,20,4,16,16,75,4,40,35,4,0,14,3.5,6,L,0.20251999999999998,0.13724999999999998,0.22569999999999996,0.24399999999999997
13,5,9,0,3,21.898999999999983,20,99,28,26,10,53,22.691999999999982,9.881999999999993,2.439999999999998,0.9149999999999996,20,18,6,3,106,36,7,3,5,0,20,5,6,L,0.2140754716981132,0.27449999999999997,0.34857142857142853,0.30499999999999994
13,5,10,0,7,23.72899999999998,17,118,15,22,23,96,23.78999999999998,1.0979999999999994,2.3789999999999982,3.903999999999997,18,5,12,11,119,6,12,23,6,0.5,39,5.25,6,L,0.19991596638655462,0.183,0.19824999999999998,0.1697391304347826
13,6,11,1,12,32.32999999999998,20,140,42,98,47,38,32.63499999999998,2.9279999999999977,1.8299999999999987,2.8669999999999978,20,12,6,9,141,19,9,14,5,0.5,32,4.25,6,L,0.23145390070921984,0.15410526315789475,0.20333333333333334,0.20478571428571427
13,6,12,1,3,19.153999999999986,19,83,28,36,25,29,19.275999999999986,4.025999999999997,0.366,2.0739999999999985,20,10,1,9,85,16,1,9,5,1,60,5,6,L,0.22677647058823527,0.251625,0.366,0.23044444444444445
13,7,13,1,1,30.194999999999975,18,150,76,78,77,24,31.536999999999974,2.561999999999998,3.1109999999999975,3.781999999999997,20,11,10,9,160,11,14,13,3,0.5,24,3.75,6,L,0.19710624999999998,0.23290909090909087,0.2222142857142857,0.29092307692307684
13,7,14,1,7,7.807999999999994,13,42,3,2,4,28,8.661999999999994,3.0499999999999976,1.8299999999999987,0.122,17,9,9,2,46,11,10,2,6,0.5,41,5.75,6,L,0.18830434782608696,0.2772727272727272,0.18299999999999997,0.061
13,8,15,1,15,11.71199999999999,16,51,22,14,17,33,13.17599999999999,3.476999999999997,2.622999999999998,0.7929999999999997,19,13,11,4,54,18,17,4,6,0.5,41,5.75,6,L,0.24399999999999997,0.19316666666666665,0.15429411764705883,0.19824999999999998
13,8,16,1,12,32.14699999999998,17,142,48,38,91,71,35.196999999999974,5.428999999999996,6.282999999999995,0.8539999999999996,20,11,13,4,155,20,32,4,5,0,17,4.25,6,L,0.2270774193548387,0.27144999999999997,0.19634374999999998,0.2135
13,9,17,1,12,45.383999999999965,17,198,43,42,60,89,46.298999999999964,3.4159999999999973,5.245999999999996,0.8539999999999996,20,11,13,5,203,13,19,5,5,0,17,4.25,6,L,0.22807389162561573,0.2627692307692307,0.2761052631578947,0.1708
13,9,18,1,11,18.787999999999986,20,93,71,70,63,107,19.336999999999986,2.1349999999999985,0.305,7.258999999999994,20,5,4,13,95,6,4,34,4,0.5,26,3.5,6,L,0.20354736842105262,0.3558333333333333,0.07625,0.21349999999999997
13,10,19,1,8,57.76699999999995,12,239,106,102,63,71,59.53599999999995,3.9649999999999967,7.685999999999994,6.343999999999995,18,15,16,13,245,18,35,25,2,0,12,3,6,L,0.24300408163265305,0.22027777777777774,0.2196,0.25375999999999993
13,10,20,1,13,15.432999999999987,20,64,111,114,116,93,16.28699999999999,4.635999999999997,6.038999999999995,2.3789999999999982,20,15,14,7,68,23,17,12,2,0.5,15,2.25,6,L,0.23951470588235294,0.20156521739130434,0.355235294117647,0.19825
13,11,21,1,12,16.835999999999988,16,80,42,101,107,43,31.780999999999977,1.1589999999999994,3.4159999999999973,0.366,20,3,14,4,138,3,16,4,5,0,14,3.5,6,L,0.23029710144927534,0.3863333333333333,0.2135,0.0915
13,11,22,1,2,10.186999999999992,16,51,51,25,109,5,12.01699999999999,22.569999999999983,39.40599999999997,6.770999999999995,20,18,18,16,60,82,174,31,4,0,17,4.25,6,L,0.2002833333333333,0.27524390243902436,0.22647126436781606,0.21841935483870967
13,12,23,1,7,12.38299999999999,18,64,8,10,5,2,12.93199999999999,2.3179999999999983,3.842999999999997,1.8299999999999987,20,7,12,6,68,9,16,9,6,1,72,6,6,L,0.19017647058823528,0.25755555555555554,0.24018749999999997,0.2033333333333333
13,12,24,1,2,29.828999999999976,18,133,49,51,56,86,32.81799999999998,0.061,1.8299999999999987,4.147999999999997,20,1,9,9,143,1,10,16,4,0.5,27,3.75,6,L,0.22949650349650347,0.061,0.183,0.25925
13,13,25,1,1,18.482999999999986,16,73,75,73,80,83,18.543999999999986,0.7319999999999998,3.903999999999997,0.6099999999999999,17,4,11,3,74,4,14,3,3,1,36,3,6,L,0.25059459459459454,0.183,0.2788571428571428,0.20333333333333334
13,13,26,1,13,16.957999999999988,20,84,119,120,90,94,19.946999999999985,0.8539999999999996,20.556999999999984,0.183,20,5,18,2,96,5,88,2,2,0,10,2.5,6,L,0.20778125,0.1708,0.2336022727272727,0.0915
13,14,27,1,3,42.94399999999997,18,184,30,28,27,109,45.200999999999965,3.1109999999999975,2.805999999999998,1.7079999999999989,20,9,11,6,196,13,14,7,5,0.5,32,4.25,6,L,0.2306173469387755,0.23930769230769228,0.2004285714285714,0.244
13,14,28,1,2,24.46099999999998,15,117,60,53,59,54,25.07099999999998,0.427,0.061,8.112999999999994,17,3,1,13,119,3,1,26,4,1,48,4,6,L,0.21068067226890755,0.14233333333333334,0.061,0.3120384615384615
13,15,29,1,15,17.262999999999987,20,105,13,23,17,44,18.482999999999986,2.744999999999998,13.41999999999999,1.646999999999999,20,11,14,7,111,12,42,8,6,0.5,41,5.75,6,L,0.1665135135135135,0.22874999999999995,0.31952380952380943,0.205875
13,15,30,1,7,16.22599999999999,17,87,10,7,2,8,17.323999999999987,1.4029999999999991,4.574999999999997,0.305,20,7,14,2,91,10,22,2,6,1,72,6,6,L,0.19037362637362634,0.14029999999999998,0.20795454545454545,0.1525
13,16,31,1,3,31.963999999999974,20,139,32,28,27,111,33.183999999999976,0.122,1.3419999999999992,3.2939999999999974,20,1,4,11,146,1,4,19,5,0.5,32,4.25,6,L,0.2272876712328767,0.122,0.3354999999999999,0.17336842105263156
13,16,32,1,2,43.12699999999997,14,186,50,101,51,42,45.688999999999965,4.513999999999997,0.8539999999999996,1.2809999999999993,20,11,6,6,200,19,6,7,4,0,15,3.75,6,L,0.22844499999999998,0.23757894736842106,0.14233333333333334,0.183
14,1,1,0,5,33.976999999999975,17,154,44,41,37,11,35.074999999999974,1.0979999999999994,7.197999999999994,1.8909999999999987,20,3,13,6,159,4,31,6,5,0.5,36,5.25,6,L,0.22059748427672954,0.27449999999999997,0.23219354838709674,0.3151666666666666
14,1,2,0,3,22.142999999999983,19,107,27,20,15,30,24.46099999999998,1.8909999999999987,7.685999999999994,1.2199999999999993,20,5,15,6,117,6,31,6,5,0,22,5.5,6,L,0.20906837606837606,0.31516666666666665,0.24793548387096773,0.2033333333333333
14,2,3,0,8,18.360999999999986,18,95,118,112,85,45,20.556999999999984,2.3179999999999983,6.770999999999995,0.9149999999999996,20,10,17,1,103,12,29,1,2,0,12,3,6,L,0.19958252427184464,0.19316666666666665,0.23348275862068962,0.9149999999999996
14,2,4,0,7,16.896999999999988,17,77,16,21,103,22,17.018999999999988,4.086999999999997,3.1719999999999975,0.6709999999999998,18,10,8,5,78,14,9,5,6,0.5,38,5,6,L,0.21819230769230769,0.29192857142857137,0.35244444444444434,0.13419999999999999
14,3,5,0,5,25.98599999999998,20,102,41,40,24,47,26.16899999999998,1.0369999999999995,12.50499999999999,7.258999999999994,20,5,17,17,105,5,52,31,5,0.5,36,5.25,6,L,0.2492285714285714,0.2074,0.24048076923076922,0.23416129032258062
14,3,6,0,8,15.920999999999987,20,85,115,119,25,114,25.31499999999998,5.489999999999996,1.585999999999999,1.463999999999999,20,16,5,3,126,29,5,3,2,0.5,17,2.75,6,L,0.2009126984126984,0.1893103448275862,0.3172,0.4879999999999999
14,4,7,0,9,20.556999999999984,17,102,62,72,69,67,21.532999999999983,0.305,1.0979999999999994,0.8539999999999996,20,2,3,3,106,2,3,3,4,1,48,4,6,L,0.20314150943396225,0.1525,0.36599999999999994,0.2846666666666667
14,4,8,0,1,16.713999999999988,20,82,73,75,79,84,17.018999999999988,1.3419999999999992,1.524999999999999,1.8909999999999987,20,7,6,7,84,9,6,7,3,1,36,3,6,L,0.20260714285714285,0.1491111111111111,0.2541666666666666,0.2701428571428571
14,5,9,0,6,31.963999999999974,13,144,5,7,9,25,32.02499999999998,1.524999999999999,0.9759999999999995,20.983999999999984,14,3,3,16,145,4,4,81,6,0.5,41,5.75,6,L,0.22086206896551722,0.3812499999999999,0.244,0.2590617283950617
14,5,10,0,5,20.495999999999984,20,101,39,47,109,117,22.935999999999982,1.9519999999999986,10.857999999999992,5.550999999999996,20,6,18,14,110,8,41,26,5,0,14,3.5,6,L,0.2085090909090909,0.24399999999999994,0.2648292682926829,0.2135
14,6,11,1,2,12.62699999999999,19,67,49,54,59,24,14.273999999999988,0.488,1.9519999999999986,2.500999999999998,20,3,10,8,73,3,12,13,4,0.5,30,4.5,6,L,0.19553424657534246,0.16266666666666665,0.16266666666666665,0.19238461538461535
14,6,12,1,7,20.007999999999985,20,92,11,8,5,12,21.288999999999984,1.1589999999999994,1.7079999999999989,0.9759999999999995,20,5,6,4,99,6,6,5,6,1,72,6,6,L,0.21504040404040403,0.19316666666666665,0.2846666666666666,0.19519999999999998
14,7,13,1,12,57.64499999999995,18,238,106,46,44,38,59.10899999999995,0.8539999999999996,1.646999999999999,1.585999999999999,20,5,6,5,240,6,8,5,5,0.5,32,4.25,6,L,0.24628749999999996,0.14233333333333334,0.205875,0.3172
14,7,14,1,11,33.732999999999976,15,149,69,66,23,117,35.196999999999974,0.122,3.1109999999999975,0.6099999999999999,20,1,10,3,159,1,14,4,4,0,16,4,6,L,0.22136477987421382,0.122,0.2222142857142857,0.1525
14,8,15,1,14,48.12899999999996,17,225,96,93,89,85,49.34899999999996,2.0739999999999985,0.7929999999999997,0.7319999999999998,20,10,5,3,231,10,8,3,3,1,36,3,6,L,0.21363203463203462,0.2074,0.09912499999999999,0.244
14,8,16,1,12,56.363999999999955,16,260,45,38,6,102,56.485999999999954,0.5489999999999999,51.48399999999996,14.639999999999988,17,3,18,16,261,3,203,48,5,0,18,4.5,6,L,0.2164214559386973,0.183,0.253615763546798,0.30499999999999994
14,9,17,1,15,12.26099999999999,20,63,14,15,19,22,14.334999999999988,2.3179999999999983,1.0369999999999995,3.781999999999997,20,10,5,12,73,14,5,16,6,1,72,6,6,L,0.19636986301369863,0.16557142857142856,0.2074,0.23637499999999997
14,9,18,1,7,28.059999999999977,20,129,3,2,90,70,28.852999999999977,24.70499999999998,0.488,0.427,20,19,3,2,131,110,4,2,6,0,19,4.75,6,L,0.22025190839694656,0.22459090909090906,0.122,0.2135
14,10,19,1,8,12.44399999999999,19,56,102,103,65,98,21.349999999999984,3.903999999999997,6.709999999999995,1.1589999999999994,20,9,16,4,91,15,31,4,2,0.5,16,2.5,6,L,0.2346153846153846,0.26026666666666665,0.2164516129032258,0.28975
14,10,20,1,7,10.369999999999992,16,53,9,4,6,11,12.32199999999999,3.781999999999997,6.648999999999995,3.9649999999999967,20,9,15,11,63,14,27,13,6,1,72,6,6,L,0.1955873015873016,0.27014285714285713,0.24625925925925923,0.30499999999999994
14,11,21,1,7,23.54599999999998,20,123,4,8,97,28,23.60699999999998,5.916999999999995,2.1349999999999985,18.604999999999986,20,14,8,14,124,38,9,62,6,0,19,4.75,6,L,0.19037903225806452,0.15571052631578947,0.2372222222222222,0.3000806451612903
14,11,22,1,2,37.14899999999997,15,159,14,18,23,43,58.80399999999996,3.903999999999997,1.2809999999999993,0.122,20,11,5,1,253,15,5,1,4,0.5,41,5.75,6,L,0.2324268774703557,0.26026666666666665,0.25619999999999993,0.122
14,12,23,1,7,15.920999999999987,19,92,10,117,11,38,16.04299999999999,8.173999999999994,4.7579999999999965,2.9279999999999977,20,15,13,8,94,38,21,15,6,0,19,4.75,6,L,0.17067021276595745,0.21510526315789472,0.22657142857142853,0.19519999999999998
14,12,24,1,14,70.08900000000065,16,293,89,30,29,61,71.55300000000065,4.513999999999997,5.306999999999996,1.7079999999999989,20,8,10,7,298,10,18,8,3,0,17,4.25,6,L,0.24011073825503354,0.4513999999999999,0.2948333333333333,0.2135
14,13,25,1,15,18.421999999999986,13,83,17,24,21,31,18.665999999999986,3.2329999999999974,1.585999999999999,9.149999999999993,15,7,5,14,85,10,8,46,6,0.5,41,5.75,6,L,0.2196,0.3232999999999999,0.19824999999999998,0.19891304347826086
14,13,26,1,7,14.151999999999989,19,83,6,104,9,47,14.212999999999989,8.234999999999994,0.061,8.417999999999994,20,14,1,15,84,28,1,41,6,0,19,4.75,6,L,0.16920238095238094,0.2941071428571428,0.061,0.2053170731707317
14,14,27,1,7,9.393999999999993,18,41,11,6,7,9,9.881999999999993,6.648999999999995,0.366,0.8539999999999996,20,14,2,4,43,32,2,4,6,1,72,6,6,L,0.22981395348837208,0.20778124999999997,0.183,0.2135
14,14,28,1,3,27.327999999999978,19,130,32,97,108,99,31.353999999999974,4.330999999999997,7.8689999999999936,10.430999999999992,20,15,15,15,146,23,36,40,5,0.5,17,2.75,6,L,0.21475342465753422,0.18830434782608693,0.21858333333333332,0.260775
14,15,29,1,12,26.35199999999998,15,115,13,14,17,38,42.94399999999997,24.15599999999998,26.53499999999998,1.7689999999999988,20,19,18,10,176,89,88,11,5,0.5,41,5.75,6,L,0.24399999999999997,0.2714157303370786,0.30153409090909084,0.1608181818181818
14,15,30,1,13,20.922999999999984,13,90,1,2,8,111,77.34799999999994,0.7319999999999998,0.061,0.061,20,3,1,1,310,3,1,1,2,0.5,38,5,6,L,0.24950967741935481,0.244,0.061,0.061
15,1,1,0,5,13.846999999999989,19,73,38,44,42,40,16.34799999999999,0.122,3.476999999999997,2.0129999999999986,20,2,6,5,82,2,9,5,5,1,60,5,6,L,0.19936585365853657,0.061,0.3863333333333332,0.40259999999999996
15,1,2,0,9,17.689999999999987,20,90,72,64,63,26,19.153999999999986,2.1349999999999985,1.1589999999999994,5.916999999999995,20,6,3,13,100,9,3,30,4,0.5,29,4.25,6,L,0.19154,0.2372222222222222,0.3863333333333333,0.19723333333333332
15,2,3,0,3,12.62699999999999,15,61,25,31,34,26,13.05399999999999,2.1959999999999984,1.9519999999999986,3.3549999999999973,17,12,4,9,63,15,5,14,5,1,60,5,6,L,0.2072063492063492,0.1464,0.39039999999999986,0.23964285714285713
15,2,4,0,5,22.081999999999983,19,95,39,44,38,41,23.85099999999998,0.183,0.305,6.343999999999995,20,1,2,11,101,1,3,17,5,1,60,5,6,L,0.23614851485148514,0.183,0.10166666666666667,0.3731764705882352
15,3,5,0,7,23.66799999999998,19,104,14,16,19,17,24.64399999999998,3.781999999999997,0.5489999999999999,5.7949999999999955,20,10,3,13,106,15,3,26,6,1,72,6,6,L,0.23249056603773582,0.25213333333333326,0.183,0.22288461538461538
15,3,6,0,3,26.53499999999998,19,116,27,3,4,89,27.693999999999978,6.526999999999995,15.310999999999988,0.122,20,16,17,1,121,29,63,1,5,0,20,5,6,L,0.2288760330578512,0.22506896551724137,0.24303174603174602,0.122
15,4,7,0,7,16.774999999999988,19,90,15,17,21,94,16.957999999999988,5.916999999999995,1.0369999999999995,16.10399999999999,20,17,5,16,93,29,5,68,6,0.5,39,5.25,6,L,0.18234408602150537,0.20403448275862068,0.2074,0.23682352941176468
15,4,8,0,6,14.700999999999988,18,62,1,11,12,2,21.715999999999983,0.9149999999999996,0.061,1.9519999999999986,20,3,1,8,88,4,1,10,6,1,72,6,6,L,0.24677272727272725,0.22874999999999995,0.061,0.19519999999999998
15,5,9,0,5,14.334999999999988,19,76,40,41,46,44,14.944999999999988,1.2199999999999993,6.221999999999995,1.2809999999999993,20,7,13,3,78,8,22,3,5,1,60,5,6,L,0.1916025641025641,0.1525,0.28281818181818175,0.4269999999999999
15,5,10,0,9,32.02499999999998,18,146,64,61,113,65,33.854999999999976,0.366,3.4159999999999973,0.8539999999999996,20,2,7,6,152,2,9,6,4,0.5,26,3.5,6,L,0.22273026315789474,0.183,0.3795555555555554,0.14233333333333334
15,6,11,1,2,53.06999999999996,12,228,47,78,57,49,54.04599999999996,2.0739999999999985,4.025999999999997,0.9149999999999996,15,7,12,3,234,8,17,3,4,0,16,4,6,L,0.23096581196581195,0.25925,0.23682352941176468,0.305
15,6,12,1,13,48.79999999999996,13,202,113,21,28,109,53.80199999999996,2.439999999999998,0.9759999999999995,0.305,20,8,3,3,222,11,4,3,2,0,15,3.75,6,L,0.24235135135135133,0.2218181818181818,0.244,0.10166666666666667
15,7,13,1,7,13.846999999999989,20,71,2,10,12,57,13.968999999999989,2.622999999999998,0.5489999999999999,15.859999999999987,20,10,6,16,73,13,6,81,6,0.5,40,5.5,6,L,0.19135616438356162,0.20176923076923076,0.0915,0.19580246913580246
15,7,14,1,15,26.71799999999998,19,134,13,19,20,45,26.77899999999998,5.7339999999999955,4.635999999999997,1.7689999999999988,20,12,14,5,135,20,21,5,6,0.5,41,5.75,6,L,0.19836296296296296,0.28669999999999995,0.22076190476190474,0.35379999999999995
