Subject,Round,Phase,afterbreak,Schema,Schema_RT,Schema_OB,Schema_AS,Cho_1,Cho_2,Cho_3,Cho_4,RT_1,RT_2,RT_3,RT_4,OB_1,OB_2,OB_3,OB_4,AS_1,AS_2,AS_3,AS_4,schema_payoff,AC,performance,payoff,breakR,type,dwellmean_1,dwellmean_2,dwellmean_3,dwellmean_4
1,1,1,0,7,26.96199999999998,18,112,15,13,20,107,29.279999999999976,17.567999999999987,1.9519999999999986,0.122,20,18,10,2,123,58,11,2,6,0.5,38,5,6,L,0.23804878048780487,0.3028965517241379,0.17745454545454545,0.061
1,1,2,0,10,11.83399999999999,16,50,96,87,86,1,12.13899999999999,4.7579999999999965,0.7319999999999998,5.489999999999996,19,13,5,13,53,23,6,23,3,0.5,24,3.75,6,L,0.2290377358490566,0.2068695652173913,0.122,0.23869565217391303
1,2,3,0,7,21.776999999999983,18,113,13,21,94,29,21.837999999999983,2.3789999999999982,7.990999999999993,1.7689999999999988,19,8,15,8,114,10,34,9,6,0,20,5,6,L,0.1915614035087719,0.23789999999999997,0.23502941176470588,0.19655555555555554
1,2,4,0,9,25.19299999999998,20,125,67,65,71,43,26.83999999999998,1.4029999999999991,2.8669999999999978,11.589999999999991,20,3,12,16,133,3,16,53,4,0.5,29,4.25,6,L,0.2018045112781955,0.46766666666666656,0.1791875,0.21867924528301885
1,3,5,0,4,17.811999999999987,19,90,105,86,15,108,19.458999999999985,12.50499999999999,5.245999999999996,0.5489999999999999,20,18,14,5,98,70,24,5,2,0,13,3.25,6,L,0.1985612244897959,0.17864285714285713,0.21858333333333332,0.1098
1,3,6,0,6,47.76299999999996,15,209,11,45,6,8,47.82399999999996,8.417999999999994,1.2809999999999993,15.188999999999988,16,15,7,17,210,32,8,61,6,0.5,41,5.75,6,L,0.2277333333333333,0.2630625,0.160125,0.24899999999999997
1,4,7,0,2,27.815999999999978,16,131,55,52,18,103,28.791999999999977,0.061,8.722999999999994,4.818999999999996,20,1,15,14,135,1,33,18,4,0,16,4,6,L,0.21327407407407406,0.061,0.2643333333333333,0.2677222222222222
1,4,8,0,9,14.517999999999988,19,73,69,68,67,72,15.798999999999987,0.061,3.3549999999999973,7.319999999999994,20,1,9,16,80,1,16,33,4,1,48,4,6,L,0.19748749999999998,0.061,0.2096875,0.2218181818181818
1,5,9,0,5,54.04599999999996,16,229,40,45,5,43,54.35099999999996,2.3179999999999983,7.014999999999994,2.0129999999999986,18,8,13,9,231,8,32,11,5,0.5,36,5.25,6,L,0.23528571428571426,0.28974999999999995,0.21921875,0.183
1,5,10,0,1,19.214999999999986,19,84,79,74,75,77,20.251999999999985,1.585999999999999,0.7929999999999997,2.1349999999999985,20,6,4,8,92,7,4,10,3,1,36,3,6,L,0.22013043478260869,0.22657142857142856,0.19824999999999998,0.2135
1,6,11,1,14,36.41699999999997,18,144,32,89,72,85,41.54099999999997,0.305,0.7319999999999998,2.1959999999999984,20,1,3,8,166,1,3,10,3,0,15,3.75,6,L,0.2502469879518072,0.305,0.244,0.21959999999999996
1,6,12,1,13,17.384999999999987,19,84,109,44,3,113,19.458999999999985,15.493999999999987,3.1109999999999975,5.977999999999995,20,15,11,15,95,60,14,28,2,0,15,3.75,6,L,0.20483157894736842,0.2582333333333333,0.2222142857142857,0.2135
1,7,13,1,1,14.883999999999988,19,70,75,83,82,113,16.10399999999999,1.7689999999999988,4.391999999999997,1.7689999999999988,20,7,11,4,77,9,16,4,3,0.5,20,2.75,6,L,0.20914285714285713,0.19655555555555554,0.27449999999999997,0.4422499999999998
1,7,14,1,8,40.80899999999997,13,173,97,98,69,105,42.63899999999997,0.183,4.208999999999997,1.0369999999999995,20,1,12,5,183,1,17,5,2,0.5,16,2.5,6,L,0.23299999999999998,0.183,0.24758823529411764,0.2074
1,8,15,1,7,28.608999999999977,20,135,12,11,6,113,29.584999999999976,0.305,5.001999999999996,0.183,20,2,14,1,140,2,22,1,6,0.5,38,5,6,L,0.21132142857142855,0.1525,0.22736363636363635,0.183
1,8,16,1,3,15.127999999999988,14,67,35,27,31,26,15.554999999999987,0.5489999999999999,3.3549999999999973,10.003999999999992,19,4,10,15,72,5,12,42,5,1,60,5,6,L,0.21604166666666666,0.1098,0.2795833333333333,0.23819047619047617
1,9,17,1,3,14.212999999999989,19,73,25,28,26,57,15.615999999999987,0.061,0.244,21.410999999999984,20,1,2,17,81,1,2,81,5,0.5,34,4.75,6,L,0.1927901234567901,0.061,0.122,0.2643333333333333
1,9,18,1,8,14.212999999999989,19,67,101,99,64,104,15.859999999999987,0.061,5.062999999999996,4.7579999999999965,20,1,12,13,76,1,15,24,2,0.5,16,2.5,6,L,0.20868421052631578,0.061,0.33753333333333324,0.19825
1,10,19,1,3,33.000999999999976,20,148,14,54,49,33,77.71399999999994,0.122,0.061,0.061,20,2,1,1,322,2,1,1,5,0,19,4.75,6,L,0.2413478260869565,0.061,0.061,0.061
1,10,20,1,14,15.188999999999988,20,78,91,118,44,64,22.691999999999982,15.493999999999987,1.7689999999999988,5.306999999999996,20,18,7,12,109,66,8,17,3,0,14,3.5,6,L,0.20818348623853208,0.23475757575757575,0.221125,0.3121764705882352
1,11,21,1,13,25.37599999999998,19,113,111,109,114,45,26.47399999999998,2.1349999999999985,3.9649999999999967,2.805999999999998,20,10,12,11,121,12,18,14,2,0.5,17,2.75,6,L,0.21879338842975204,0.17791666666666667,0.22027777777777777,0.20042857142857143
1,11,22,1,7,18.299999999999986,20,85,4,5,12,10,21.227999999999984,1.0369999999999995,0.5489999999999999,4.269999999999997,20,5,5,14,94,5,5,19,6,1,72,6,6,L,0.22582978723404254,0.20739999999999997,0.1098,0.22473684210526315
1,12,23,1,14,33.000999999999976,18,158,85,95,92,59,36.05099999999997,1.2199999999999993,0.305,9.759999999999993,20,4,2,14,172,6,2,40,3,0.5,22,3.25,6,L,0.2095988372093023,0.2033333333333333,0.1525,0.24399999999999997
1,12,24,1,12,15.249999999999988,20,72,42,64,38,40,19.519999999999985,2.8669999999999978,2.3179999999999983,1.4029999999999991,20,9,6,7,84,13,10,7,5,0.5,34,4.75,6,L,0.23238095238095235,0.22053846153846152,0.23179999999999995,0.20042857142857143
1,13,25,1,2,23.78999999999998,16,107,55,41,59,47,25.25399999999998,2.500999999999998,0.7929999999999997,12.01699999999999,20,9,2,17,112,11,2,56,4,0,18,4.5,6,L,0.22548214285714283,0.22736363636363635,0.39649999999999996,0.21458928571428568
1,13,26,1,11,44.224999999999966,15,215,63,62,18,72,44.346999999999966,1.2809999999999993,6.587999999999995,0.183,16,5,14,2,216,8,29,2,4,0.5,30,4.5,6,L,0.20531018518518518,0.160125,0.2271724137931034,0.0915
1,14,27,1,14,14.639999999999988,20,78,61,88,68,91,37.45399999999997,0.122,0.7929999999999997,1.8299999999999987,20,2,4,4,173,2,4,5,3,0,14,3.5,6,L,0.2164971098265896,0.061,0.19824999999999998,0.366
1,14,28,1,15,11.528999999999991,20,62,15,22,18,23,12.50499999999999,0.366,0.9149999999999996,2.744999999999998,20,3,2,8,67,3,2,14,6,1,72,6,6,L,0.1866417910447761,0.122,0.45749999999999985,0.19607142857142854
1,15,29,1,3,25.13199999999998,12,122,30,32,26,28,27.754999999999978,2.0129999999999986,0.7929999999999997,1.2809999999999993,20,10,5,7,132,11,5,7,5,1,60,5,6,L,0.2102651515151515,0.183,0.1586,0.183
1,15,30,1,12,22.569999999999983,19,92,44,47,68,48,24.94899999999998,0.061,10.308999999999992,6.404999999999995,20,1,14,15,104,1,39,30,5,0.5,34,4.75,6,L,0.23989423076923075,0.061,0.2643333333333333,0.2135
1,16,31,1,11,21.349999999999984,19,101,71,67,64,47,23.179999999999982,0.183,2.9889999999999977,8.051999999999994,20,1,8,15,108,1,9,42,4,0.5,29,4.25,6,L,0.21462962962962961,0.183,0.3321111111111111,0.1917142857142857
1,16,32,1,15,6.221999999999995,12,39,16,15,17,27,6.587999999999995,5.245999999999996,3.2329999999999974,12.13899999999999,15,11,11,16,42,20,12,49,6,0.5,41,5.75,6,L,0.15685714285714286,0.2623,0.2694166666666666,0.247734693877551
2,1,1,0,7,18.238999999999987,19,71,15,24,90,34,18.299999999999986,2.0739999999999985,9.271999999999993,2.561999999999998,20,10,13,9,72,15,29,10,6,0,20,5,6,L,0.25416666666666665,0.13826666666666665,0.31972413793103444,0.2562
2,1,2,0,2,11.223999999999991,16,53,52,54,79,111,11.345999999999991,1.7079999999999989,15.371999999999987,2.0739999999999985,18,7,17,12,55,7,69,14,4,0,13,3.25,6,L,0.20629090909090908,0.244,0.22278260869565217,0.14814285714285713
2,2,3,0,3,27.266999999999978,17,162,34,32,29,14,28.364999999999977,0.6099999999999999,8.844999999999994,0.488,19,3,16,2,164,3,38,2,5,0.5,36,5.25,6,L,0.17295731707317072,0.20333333333333334,0.2327631578947368,0.244
2,2,4,0,4,11.162999999999991,16,54,105,3,101,106,11.223999999999991,19.946999999999985,0.061,0.122,17,18,1,1,55,92,1,1,2,0.5,18,3,6,L,0.20407272727272724,0.21681521739130433,0.061,0.122
2,3,5,0,5,17.689999999999987,20,78,40,98,15,57,24.64399999999998,6.953999999999994,8.112999999999994,0.9149999999999996,20,17,15,4,101,32,33,5,5,0,17,4.25,6,L,0.24399999999999997,0.2173125,0.24584848484848484,0.183
2,3,6,0,6,15.005999999999988,19,70,10,12,3,8,15.371999999999987,0.7319999999999998,0.183,0.488,20,5,2,4,72,6,2,4,6,1,72,6,6,L,0.2135,0.122,0.0915,0.122
2,4,7,0,7,10.613999999999992,11,54,16,21,17,20,10.796999999999992,0.061,7.380999999999994,2.1349999999999985,13,1,17,5,56,1,39,6,6,1,72,6,6,L,0.1928035714285714,0.061,0.18925641025641024,0.3558333333333332
2,4,8,0,6,14.700999999999988,14,63,4,3,1,6,15.188999999999988,5.7949999999999955,4.086999999999997,3.2939999999999974,16,16,12,9,65,27,17,13,6,1,72,6,6,L,0.23367692307692306,0.21462962962962961,0.24041176470588232,0.2533846153846154
2,5,9,0,7,7.807999999999994,15,46,14,15,22,50,7.990999999999993,0.427,2.0129999999999986,7.990999999999993,17,3,5,15,48,3,6,31,6,0.5,40,5.5,6,L,0.16647916666666665,0.14233333333333334,0.33549999999999996,0.25777419354838704
2,5,10,0,6,11.71199999999999,18,56,1,2,110,10,11.77299999999999,3.476999999999997,1.463999999999999,0.9759999999999995,19,8,5,4,57,12,7,4,6,0.5,38,5,6,L,0.20654385964912278,0.28974999999999995,0.20914285714285713,0.244
2,6,11,1,7,25.68099999999998,17,124,3,5,10,11,25.92499999999998,1.8299999999999987,0.122,1.0369999999999995,19,5,2,7,126,6,2,9,6,1,72,6,6,L,0.20575396825396824,0.30499999999999994,0.061,0.11522222222222223
2,6,12,1,15,24.64399999999998,20,117,23,20,61,18,25.98599999999998,1.463999999999999,6.160999999999995,0.7929999999999997,20,7,12,5,121,8,22,5,6,0.5,40,5.5,6,L,0.21476033057851238,0.183,0.2800454545454545,0.1586
2,7,13,1,7,27.08399999999998,20,138,4,5,9,25,27.14499999999998,0.5489999999999999,5.306999999999996,44.163999999999966,20,3,14,16,139,3,24,177,6,0.5,41,5.75,6,L,0.19528776978417264,0.183,0.22112499999999996,0.24951412429378528
2,7,14,1,1,39.52799999999997,17,177,76,80,78,16,39.71099999999997,1.8909999999999987,1.2199999999999993,0.7929999999999997,19,10,7,2,179,11,8,3,3,0.5,24,3.75,6,L,0.22184916201117316,0.1719090909090909,0.1525,0.2643333333333333
2,8,15,1,3,29.157999999999976,17,122,83,13,34,36,41.29699999999997,8.844999999999994,0.9149999999999996,0.9759999999999995,20,18,4,6,178,37,4,7,5,0,19,4.75,6,L,0.23200561797752806,0.23905405405405403,0.22875,0.13942857142857143
2,8,16,1,7,16.530999999999988,19,93,3,1,12,5,17.811999999999987,5.306999999999996,0.8539999999999996,0.6709999999999998,20,15,4,6,101,23,4,6,6,1,72,6,6,L,0.17635643564356435,0.23073913043478259,0.2135,0.11183333333333333
2,9,17,1,11,22.996999999999982,18,117,44,67,72,37,24.46099999999998,6.038999999999995,1.585999999999999,8.051999999999994,20,13,8,14,121,23,8,28,4,0,18,4.5,6,L,0.2021570247933884,0.26256521739130434,0.19824999999999998,0.28757142857142853
2,9,18,1,3,14.944999999999988,18,68,36,10,104,1,17.323999999999987,25.68099999999998,22.264999999999983,4.940999999999996,20,19,18,13,79,128,105,18,5,0,19,4.75,6,L,0.2192911392405063,0.20063281249999998,0.21204761904761904,0.27449999999999997
2,10,19,1,7,21.105999999999984,19,97,4,2,119,74,22.203999999999983,3.1719999999999975,3.537999999999997,1.8909999999999987,20,8,10,8,101,10,14,9,6,0,17,4.25,6,L,0.21984158415841581,0.3172,0.25271428571428567,0.21011111111111108
2,10,20,1,15,11.650999999999991,18,52,15,13,47,39,16.469999999999988,5.489999999999996,0.061,0.7319999999999998,20,14,1,4,79,24,1,4,6,0,22,5.5,6,L,0.20848101265822783,0.22874999999999998,0.061,0.183
2,11,21,1,2,17.994999999999987,17,77,49,53,32,51,20.007999999999985,1.0369999999999995,6.8929999999999945,0.7319999999999998,20,4,15,4,86,5,28,4,4,0.5,29,4.25,6,L,0.23265116279069764,0.2074,0.2461785714285714,0.183
2,11,22,1,12,17.994999999999987,19,76,104,82,102,62,30.98799999999998,0.366,5.489999999999996,1.2809999999999993,20,4,13,6,129,4,19,7,5,0,11,2.75,6,L,0.24021705426356588,0.0915,0.2889473684210526,0.183
2,12,23,1,7,20.129999999999985,20,98,6,4,9,76,20.922999999999984,6.221999999999995,0.061,0.427,20,12,1,2,101,23,1,2,6,0.5,39,5.25,6,L,0.20715841584158415,0.27052173913043476,0.061,0.2135
2,12,24,1,12,39.83299999999997,20,174,44,118,47,22,42.27299999999997,5.916999999999995,0.244,1.4029999999999991,20,13,1,3,182,26,1,4,5,0,18,4.5,6,L,0.23226923076923078,0.22757692307692304,0.244,0.35074999999999995
2,13,25,1,7,20.922999999999984,19,100,1,8,2,11,21.349999999999984,1.463999999999999,0.6099999999999999,2.1959999999999984,20,5,1,7,102,6,1,11,6,1,72,6,6,L,0.20931372549019606,0.244,0.6099999999999999,0.19963636363636364
2,13,26,1,12,27.14499999999998,19,108,46,42,39,23,27.510999999999978,1.2199999999999993,6.465999999999995,6.038999999999995,20,6,15,14,109,7,27,25,5,0.5,36,5.25,6,L,0.25239449541284403,0.1742857142857143,0.23948148148148146,0.24156
2,14,27,1,2,69.96700000000064,16,295,59,50,57,23,70.33300000000064,2.500999999999998,3.2329999999999974,3.720999999999997,18,8,7,9,297,10,10,9,4,0.5,30,4.5,6,L,0.23681144781144778,0.2501,0.3233,0.41344444444444434
2,14,28,1,11,25.80299999999998,14,113,71,70,69,65,28.120999999999977,4.635999999999997,0.183,1.2809999999999993,20,15,2,4,121,21,2,4,4,1,48,4,6,L,0.23240495867768593,0.22076190476190474,0.0915,0.32025
2,15,29,1,12,35.135999999999974,14,153,45,41,47,62,35.196999999999974,0.8539999999999996,3.0499999999999976,9.881999999999993,15,3,12,15,154,3,15,43,5,0.5,34,4.75,6,L,0.22855194805194803,0.2846666666666667,0.20333333333333334,0.22981395348837208
2,15,30,1,3,27.388999999999978,19,119,30,31,36,49,28.791999999999977,0.6709999999999998,0.061,25.43699999999998,20,3,1,17,132,3,1,103,5,0.5,34,4.75,6,L,0.2181212121212121,0.22366666666666665,0.061,0.24696116504854365
2,16,31,1,13,20.922999999999984,18,101,111,112,21,84,26.35199999999998,0.244,7.624999999999994,2.1959999999999984,20,2,17,7,126,2,36,9,2,0,13,3.25,6,L,0.20914285714285713,0.122,0.21180555555555552,0.24399999999999997
2,16,32,1,7,14.822999999999988,19,88,6,11,7,91,14.883999999999988,0.183,11.83399999999999,0.427,20,3,15,2,89,3,44,2,6,0.5,39,5.25,6,L,0.16723595505617977,0.061,0.26895454545454545,0.2135
3,1,1,0,7,18.543999999999986,19,108,13,15,18,48,20.434999999999985,8.844999999999994,2.3179999999999983,4.574999999999997,20,15,11,15,117,32,15,27,6,0.5,41,5.75,6,L,0.17465811965811964,0.27640624999999996,0.15453333333333333,0.16944444444444445
3,1,2,0,9,26.96199999999998,20,129,81,111,84,12,43.980999999999966,3.2939999999999974,6.343999999999995,5.428999999999996,20,11,16,10,184,12,26,16,4,0,14,3.5,6,L,0.23902717391304343,0.27449999999999997,0.244,0.33931249999999996
3,2,3,0,5,14.517999999999988,15,69,48,53,91,10,20.800999999999984,15.066999999999988,2.8669999999999978,10.308999999999992,20,19,11,16,97,69,16,38,5,0,18,4.5,6,L,0.21444329896907216,0.2183623188405797,0.1791875,0.2712894736842105
3,2,4,0,9,27.449999999999978,20,120,65,67,109,16,29.279999999999976,6.648999999999995,9.332999999999993,0.7319999999999998,20,14,15,3,126,24,45,4,4,0,16,4,6,L,0.23238095238095235,0.27704166666666663,0.20739999999999997,0.183
3,3,5,0,8,30.743999999999975,19,154,115,119,120,18,30.987999999999975,4.391999999999997,8.234999999999994,7.685999999999994,20,12,15,15,156,19,37,23,2,0.5,18,3,6,L,0.19864102564102562,0.2311578947368421,0.22256756756756754,0.3341739130434782
3,3,6,0,1,22.813999999999982,20,122,75,77,83,67,22.996999999999982,0.061,0.5489999999999999,3.3549999999999973,20,1,1,9,123,1,1,13,3,0.5,22,3.25,6,L,0.18696747967479674,0.061,0.5489999999999999,0.25807692307692304
3,4,7,0,6,10.369999999999992,15,55,1,7,55,50,10.735999999999992,0.244,5.245999999999996,2.0739999999999985,17,3,14,5,57,3,25,8,6,0,20,5,6,L,0.18835087719298244,0.08133333333333333,0.20984,0.2592499999999999
3,4,8,0,9,13.54199999999999,15,74,74,48,70,66,29.218999999999976,6.770999999999995,0.183,0.9759999999999995,20,18,2,4,127,32,2,4,4,0,16,4,6,L,0.23007086614173225,0.21159375,0.0915,0.244
3,5,9,0,7,21.105999999999984,19,86,15,17,22,37,21.166999999999984,4.086999999999997,10.552999999999992,0.183,20,12,17,1,87,18,49,1,6,0.5,41,5.75,6,L,0.24329885057471262,0.22705555555555554,0.21536734693877552,0.183
3,5,10,0,9,23.60699999999998,20,115,69,72,85,3,23.91199999999998,0.061,5.672999999999996,7.9299999999999935,20,1,11,15,118,1,22,39,4,0,17,4.25,6,L,0.20264406779661018,0.061,0.25786363636363635,0.2033333333333333
3,6,11,1,3,19.763999999999985,20,96,25,29,32,34,21.105999999999984,0.488,0.061,2.805999999999998,20,2,1,7,100,3,1,9,5,1,60,5,6,L,0.21105999999999997,0.16266666666666665,0.061,0.3117777777777777
3,6,12,1,1,19.824999999999985,20,85,77,73,38,81,22.691999999999982,0.5489999999999999,2.3179999999999983,1.3419999999999992,20,3,10,8,96,3,14,11,3,0.5,23,3.5,6,L,0.23637499999999997,0.183,0.16557142857142856,0.122
3,7,13,1,12,21.410999999999984,20,110,43,52,96,10,25.19299999999998,5.489999999999996,10.796999999999992,0.488,20,12,17,1,120,24,39,1,5,0,18,4.5,6,L,0.20994166666666664,0.22874999999999995,0.27684615384615385,0.488
3,7,14,1,1,21.227999999999984,19,107,76,80,66,15,23.91199999999998,2.622999999999998,10.308999999999992,4.635999999999997,20,7,15,15,116,10,47,19,3,0,16,4,6,L,0.20613793103448275,0.2623,0.21934042553191488,0.24399999999999997
3,8,15,1,3,19.702999999999985,19,98,31,90,6,104,20.129999999999985,17.018999999999988,5.7949999999999955,1.9519999999999986,20,17,15,6,102,66,24,7,5,0,16,4,6,L,0.19735294117647056,0.25786363636363635,0.2414583333333333,0.27885714285714286
3,8,16,1,1,55.753999999999955,20,241,82,75,21,20,56.302999999999955,1.524999999999999,1.7079999999999989,5.7949999999999955,20,5,7,15,245,7,9,33,3,0,18,4.5,6,L,0.2298081632653061,0.21785714285714283,0.18977777777777777,0.1756060606060606
3,9,17,1,3,35.440999999999974,20,151,19,27,58,14,40.07699999999997,1.2809999999999993,1.2809999999999993,4.391999999999997,20,5,8,10,170,7,8,20,5,0,21,5.25,6,L,0.2357470588235294,0.183,0.160125,0.21959999999999996
3,9,18,1,7,19.641999999999985,19,93,12,62,5,6,23.118999999999982,1.2199999999999993,0.5489999999999999,0.122,20,6,5,1,103,8,5,1,6,0.5,40,5.5,6,L,0.22445631067961164,0.1525,0.1098,0.122
3,10,19,1,7,26.47399999999998,20,115,3,25,96,1,27.205999999999978,13.29799999999999,3.537999999999997,0.122,20,19,9,1,117,52,11,1,6,0,20,5,6,L,0.2325299145299145,0.2557307692307692,0.32163636363636355,0.122
3,10,20,1,12,19.519999999999985,19,86,37,41,66,48,36.11199999999997,0.6099999999999999,0.183,1.463999999999999,20,5,2,7,155,5,2,7,5,0.5,34,4.75,6,L,0.2329806451612903,0.122,0.0915,0.20914285714285713
3,11,21,1,7,8.844999999999994,17,45,10,6,91,88,9.149999999999993,2.0129999999999986,8.112999999999994,0.9149999999999996,18,7,14,4,46,9,35,4,6,0,18,4.5,6,L,0.19891304347826086,0.22366666666666665,0.23179999999999998,0.22875
3,11,22,1,12,25.37599999999998,20,106,21,41,51,40,26.16899999999998,0.366,2.8669999999999978,0.305,20,4,8,1,108,4,9,1,5,0,20,5,6,L,0.24230555555555552,0.0915,0.3185555555555555,0.305
3,12,23,1,1,24.76599999999998,20,121,13,79,55,21,36.78299999999997,0.061,1.7689999999999988,0.244,20,1,6,2,173,1,8,2,3,0,19,4.75,6,L,0.21261849710982658,0.061,0.221125,0.122
3,12,24,1,12,11.89499999999999,20,65,61,90,91,1,32.87899999999998,4.269999999999997,15.798999999999987,14.883999999999988,20,11,16,15,137,16,65,54,5,0,16,4,6,L,0.23999270072992698,0.266875,0.24306153846153844,0.27562962962962956
3,13,25,1,8,19.031999999999986,20,89,1,103,53,44,28.54799999999998,0.427,1.2199999999999993,8.417999999999994,20,4,3,16,135,4,4,41,2,0,17,4.25,6,L,0.21146666666666664,0.10675,0.30499999999999994,0.2053170731707317
3,13,26,1,3,17.628999999999987,17,76,33,28,14,27,17.689999999999987,0.6099999999999999,1.2809999999999993,1.1589999999999994,18,3,5,6,77,3,6,7,5,0.5,36,5.25,6,L,0.22974025974025972,0.20333333333333334,0.2135,0.16557142857142856
3,14,27,1,3,21.105999999999984,20,87,33,2,74,84,37.51499999999997,1.8909999999999987,0.7929999999999997,1.463999999999999,20,6,2,9,147,6,2,10,5,0,17,4.25,6,L,0.255204081632653,0.3151666666666666,0.39649999999999996,0.1464
3,14,28,1,8,26.71799999999998,20,122,97,101,98,102,26.96199999999998,2.0739999999999985,1.2199999999999993,0.061,20,9,5,1,124,11,5,1,2,1,24,2,6,L,0.21743548387096773,0.18854545454545454,0.244,0.061
3,15,29,1,12,18.543999999999986,17,81,46,45,20,37,18.787999999999986,1.8909999999999987,1.3419999999999992,2.0129999999999986,19,10,6,6,83,11,6,6,5,0.5,36,5.25,6,L,0.22636144578313253,0.1719090909090909,0.22366666666666662,0.3354999999999999
3,15,30,1,7,33.488999999999976,20,154,3,73,78,11,33.549999999999976,2.1349999999999985,3.598999999999997,4.208999999999997,20,6,9,9,155,8,15,13,6,0,18,4.5,6,L,0.2164516129032258,0.266875,0.2399333333333333,0.3237692307692307
3,16,31,1,3,12.26099999999999,14,65,2,4,30,77,67.28299999999994,0.183,0.061,0.427,20,1,1,3,307,1,1,3,5,0,20,5,6,L,0.21916286644951138,0.183,0.061,0.14233333333333334
3,16,32,1,14,46.90899999999996,20,198,86,93,85,22,48.61699999999996,0.183,1.1589999999999994,1.1589999999999994,20,3,8,3,201,3,9,4,3,0.5,24,3.75,6,L,0.24187562189054723,0.061,0.12877777777777777,0.28975
4,1,1,0,4,19.641999999999985,20,100,106,108,101,97,21.715999999999983,1.4029999999999991,2.2569999999999983,1.463999999999999,20,4,10,5,109,4,13,6,2,1,24,2,6,L,0.19922935779816514,0.3507499999999999,0.17361538461538462,0.24399999999999994
4,1,2,0,7,12.44399999999999,15,60,15,22,19,74,12.50499999999999,9.088999999999993,10.613999999999992,0.8539999999999996,16,15,16,5,61,39,38,5,6,0.5,39,5.25,6,L,0.205,0.23305128205128203,0.2793157894736842,0.1708
4,2,3,0,2,34.464999999999975,17,161,60,15,53,50,35.867999999999974,2.8669999999999978,0.5489999999999999,1.3419999999999992,20,8,2,9,165,11,2,9,4,0.5,30,4.5,6,L,0.21738181818181818,0.2606363636363636,0.27449999999999997,0.1491111111111111
4,2,4,0,9,38.97899999999997,19,180,67,61,114,72,42.08999999999997,2.744999999999998,2.683999999999998,3.1109999999999975,20,8,10,13,193,9,13,17,4,0.5,26,3.5,6,L,0.21808290155440413,0.30499999999999994,0.20646153846153845,0.183
4,3,5,0,3,22.447999999999983,20,100,31,33,34,57,22.508999999999983,8.051999999999994,0.244,17.079999999999988,20,17,2,16,101,32,2,76,5,0.5,34,4.75,6,L,0.22286138613861384,0.251625,0.122,0.22473684210526315
4,3,6,0,5,19.092999999999986,18,109,41,37,38,40,21.166999999999984,13.48099999999999,0.061,5.489999999999996,20,19,1,14,121,65,1,24,5,1,60,5,6,L,0.17493388429752066,0.2074,0.061,0.22874999999999998
4,4,7,0,10,22.935999999999982,18,118,89,93,95,111,33.061999999999976,2.1959999999999984,0.8539999999999996,7.319999999999994,20,11,6,15,165,12,8,30,3,0.5,20,2.75,6,L,0.20037575757575757,0.183,0.10675,0.244
4,4,8,0,4,33.427999999999976,17,138,101,108,104,14,36.59999999999997,2.3179999999999983,0.6709999999999998,17.323999999999987,20,7,3,15,152,8,3,57,2,0.5,18,3,6,L,0.2407894736842105,0.28974999999999995,0.22366666666666665,0.30392982456140344
4,5,9,0,2,10.125999999999992,20,54,13,17,21,56,51.48399999999996,4.147999999999997,0.183,0.8539999999999996,20,14,1,3,207,15,1,3,4,0.5,40,5.5,6,L,0.24871497584541058,0.2765333333333333,0.183,0.2846666666666667
4,5,10,0,1,38.79599999999997,20,181,64,115,76,78,74.23699999999994,0.5489999999999999,0.427,0.183,20,3,2,2,338,4,2,2,3,0,12,3,6,L,0.2196360946745562,0.13724999999999998,0.2135,0.0915
4,6,11,1,7,18.360999999999986,19,86,12,87,2,10,20.373999999999985,3.1109999999999975,0.6709999999999998,1.3419999999999992,20,8,3,6,94,11,3,7,6,0.5,39,5.25,6,L,0.21674468085106383,0.28281818181818175,0.22366666666666665,0.1917142857142857
4,6,12,1,2,33.732999999999976,20,146,52,55,17,53,35.013999999999974,2.8669999999999978,3.0499999999999976,2.439999999999998,20,9,8,8,151,18,11,9,4,0.5,30,4.5,6,L,0.23188079470198675,0.15927777777777777,0.2772727272727272,0.2711111111111111
4,7,13,1,3,16.10399999999999,18,75,26,35,32,30,17.201999999999988,0.9149999999999996,2.3179999999999983,9.637999999999993,20,4,8,13,83,4,10,33,5,1,60,5,6,L,0.20725301204819274,0.22875,0.23179999999999998,0.292060606060606
4,7,14,1,15,20.129999999999985,18,105,20,116,113,110,20.190999999999985,8.783999999999994,3.2329999999999974,0.9149999999999996,19,17,12,5,106,36,16,5,6,0.5,18,3,6,L,0.19048113207547168,0.24399999999999997,0.20206249999999998,0.183
4,8,15,1,8,18.787999999999986,20,83,104,40,10,87,19.275999999999986,3.1109999999999975,35.379999999999974,0.061,20,8,17,1,85,10,144,1,2,0,16,4,6,L,0.22677647058823527,0.31109999999999993,0.2456944444444444,0.061
4,8,16,1,1,11.467999999999991,17,60,81,74,109,110,12.50499999999999,1.3419999999999992,8.905999999999993,7.807999999999994,20,7,17,12,68,9,40,25,3,0,10,2.5,6,L,0.1838970588235294,0.1491111111111111,0.22265,0.31232
4,9,17,1,12,14.456999999999988,18,75,45,65,106,3,14.822999999999988,23.179999999999982,1.7079999999999989,2.805999999999998,20,18,4,10,79,110,6,12,5,0,17,4.25,6,L,0.18763291139240504,0.2107272727272727,0.2846666666666667,0.23383333333333328
4,9,18,1,15,18.299999999999986,19,84,19,14,23,21,19.336999999999986,3.2329999999999974,0.122,4.269999999999997,20,10,2,9,92,16,2,18,6,1,72,6,6,L,0.21018478260869564,0.2020625,0.061,0.23722222222222222
4,10,19,1,15,23.60699999999998,17,112,14,20,21,59,24.15599999999998,0.9759999999999995,2.9889999999999977,11.223999999999991,19,3,10,14,114,3,11,49,6,0.5,40,5.5,6,L,0.21189473684210525,0.32533333333333325,0.2717272727272727,0.2290612244897959
4,10,20,1,7,17.811999999999987,17,86,2,11,5,3,17.872999999999987,0.305,1.3419999999999992,11.101999999999991,18,3,5,16,87,3,8,42,6,1,72,6,6,L,0.2054367816091954,0.10166666666666667,0.16774999999999998,0.2643333333333333
4,11,21,1,3,13.23699999999999,20,61,30,33,25,99,14.395999999999988,5.123999999999996,0.488,10.064999999999992,20,14,2,16,66,23,3,34,5,0.5,32,4.25,6,L,0.2181212121212121,0.22278260869565217,0.16266666666666665,0.2960294117647059
4,11,22,1,15,19.031999999999986,14,83,13,22,113,119,19.092999999999986,1.8909999999999987,7.258999999999994,2.3789999999999982,15,7,13,8,84,8,30,10,6,0,16,4,6,L,0.22729761904761903,0.23637499999999997,0.24196666666666666,0.2379
4,12,23,1,1,47.27499999999996,16,198,73,84,80,22,47.39699999999996,1.1589999999999994,2.2569999999999983,3.781999999999997,17,4,10,12,199,4,12,17,3,0.5,24,3.75,6,L,0.2381758793969849,0.28974999999999995,0.18808333333333332,0.22247058823529411
4,12,24,1,11,29.462999999999976,19,126,70,63,89,72,29.523999999999976,0.7929999999999997,1.8909999999999987,1.8909999999999987,20,3,5,7,127,3,7,7,4,0.5,27,3.75,6,L,0.23247244094488187,0.26433333333333325,0.27014285714285713,0.27014285714285713
4,13,25,1,11,13.54199999999999,17,64,67,72,61,115,15.005999999999988,0.9759999999999995,1.585999999999999,4.635999999999997,20,4,5,10,69,4,6,17,4,0.5,26,3.5,6,L,0.21747826086956518,0.244,0.2643333333333333,0.27270588235294113
4,13,26,1,2,13.23699999999999,20,67,4,104,51,54,71.43099999999994,0.7319999999999998,0.061,0.061,20,4,1,1,302,4,1,1,4,0,16,4,6,L,0.23652649006622514,0.183,0.061,0.061
4,14,27,1,11,11.284999999999991,20,72,119,70,6,9,19.885999999999985,1.2809999999999993,8.600999999999994,8.417999999999994,20,6,18,15,99,7,45,34,4,0,18,4.5,6,L,0.20086868686868684,0.183,0.19113333333333332,0.2475882352941176
4,14,28,1,8,27.571999999999978,20,124,99,97,40,96,28.852999999999977,5.611999999999996,0.6709999999999998,3.4159999999999973,20,15,1,10,126,27,1,14,2,0,12,3,6,L,0.22899206349206347,0.20785185185185184,0.6709999999999998,0.244
4,15,29,1,2,25.86399999999998,16,124,60,49,55,45,25.98599999999998,0.305,2.9279999999999977,8.844999999999994,17,2,10,14,125,2,14,39,4,0.5,29,4.25,6,L,0.207888,0.1525,0.20914285714285713,0.22679487179487176
4,15,30,1,8,33.976999999999975,18,151,93,107,92,32,34.830999999999975,2.3179999999999983,6.587999999999995,3.781999999999997,19,7,14,6,152,8,30,7,2,0,13,3.25,6,L,0.22915131578947368,0.28974999999999995,0.2196,0.540285714285714
4,16,31,1,14,10.186999999999992,13,40,96,108,1,39,16.28699999999999,12.50499999999999,13.41999999999999,0.061,20,18,17,1,65,54,57,1,3,0,16,4,6,L,0.25056923076923077,0.23157407407407404,0.23543859649122806,0.061
4,16,32,1,15,37.39299999999997,20,184,20,18,34,24,40.19899999999997,15.432999999999987,0.061,0.061,20,17,1,1,196,74,1,1,6,0.5,41,5.75,6,L,0.2050969387755102,0.20855405405405403,0.061,0.061
5,1,1,0,6,11.83399999999999,15,67,3,1,4,11,14.883999999999988,16.774999999999988,0.305,2.0129999999999986,20,18,4,13,78,59,4,14,6,1,72,6,6,L,0.1908205128205128,0.284322033898305,0.07625,0.14378571428571427
5,1,2,0,7,21.654999999999983,20,110,14,20,68,24,23.240999999999982,0.9149999999999996,10.979999999999992,2.1349999999999985,20,4,15,10,116,4,49,10,6,0.5,40,5.5,6,L,0.20035344827586207,0.22874999999999998,0.22408163265306122,0.2135
5,2,3,0,2,34.708999999999975,17,156,58,47,57,55,43.49299999999997,5.550999999999996,1.1589999999999994,1.2809999999999993,20,12,4,4,201,18,4,4,4,0.5,29,4.25,6,L,0.21638308457711442,0.3083888888888888,0.28975,0.32024999999999987
5,2,4,0,6,11.95599999999999,18,58,5,4,7,8,13.846999999999989,2.3789999999999982,0.5489999999999999,0.9149999999999996,20,8,3,4,65,9,4,4,6,1,72,6,6,L,0.21303076923076922,0.2643333333333333,0.13724999999999998,0.22875
5,3,5,0,10,16.28699999999999,18,92,91,92,94,96,17.750999999999987,0.183,1.1589999999999994,0.5489999999999999,20,1,6,2,101,1,8,2,3,1,36,3,6,L,0.17575247524752474,0.183,0.144875,0.27449999999999997
5,3,6,0,7,34.525999999999975,17,148,18,44,17,15,38.06399999999997,9.454999999999993,4.391999999999997,3.4159999999999973,20,15,13,8,167,40,20,12,6,0.5,41,5.75,6,L,0.22792814371257483,0.23637499999999997,0.2196,0.2846666666666666
5,4,7,0,10,25.80299999999998,16,122,85,94,89,20,27.205999999999978,0.9759999999999995,1.2809999999999993,9.759999999999993,20,6,6,12,128,6,7,25,3,0.5,24,3.75,6,L,0.21254687499999997,0.16266666666666665,0.183,0.3903999999999999
5,4,8,0,6,13.907999999999989,15,63,3,10,4,9,14.517999999999988,1.0369999999999995,1.8909999999999987,3.537999999999997,19,5,11,10,67,5,12,15,6,1,72,6,6,L,0.21668656716417908,0.2074,0.15758333333333333,0.23586666666666664
5,5,9,0,6,25.00999999999998,19,119,3,8,7,92,25.07099999999998,4.7579999999999965,0.366,5.550999999999996,20,14,1,14,120,21,1,26,6,0.5,39,5.25,6,L,0.208925,0.22657142857142853,0.366,0.21349999999999997
5,5,10,0,3,17.689999999999987,16,81,27,25,32,35,18.604999999999986,1.2809999999999993,0.6099999999999999,1.7079999999999989,20,7,4,7,90,10,4,9,5,1,60,5,6,L,0.2067222222222222,0.1281,0.1525,0.18977777777777774
5,6,11,1,7,28.608999999999977,18,148,7,12,10,41,28.669999999999977,0.6709999999999998,4.818999999999996,4.086999999999997,19,2,8,11,149,2,16,16,6,0.5,41,5.75,6,L,0.19241610738255033,0.33549999999999996,0.3011875,0.2554375
5,6,12,1,13,23.301999999999982,19,106,117,21,109,110,23.78999999999998,6.953999999999994,8.417999999999994,2.1349999999999985,20,14,16,9,108,31,38,11,2,0.5,18,3,6,L,0.22027777777777777,0.22432258064516128,0.22152631578947368,0.1940909090909091
5,7,13,1,7,12.74899999999999,17,63,1,2,9,11,13.846999999999989,2.805999999999998,1.585999999999999,0.7929999999999997,20,9,7,4,67,11,10,5,6,1,72,6,6,L,0.20667164179104475,0.2550909090909091,0.1586,0.1586
5,7,14,1,13,48.86099999999996,14,204,17,13,14,18,53.43599999999996,1.1589999999999994,11.345999999999991,4.147999999999997,20,2,16,13,217,3,42,18,2,1,72,6,6,L,0.24624884792626725,0.3863333333333333,0.2701428571428571,0.23044444444444442
5,8,15,1,14,30.743999999999975,16,144,108,14,17,20,54.838999999999956,15.615999999999987,2.0129999999999986,0.061,20,19,4,1,241,70,4,1,3,0.5,38,5,6,L,0.22754771784232364,0.22308571428571428,0.5032499999999998,0.061
5,8,16,1,13,41.05299999999997,15,180,9,110,30,26,89.30399999999993,0.427,2.1959999999999984,12.07799999999999,20,2,9,17,374,2,12,50,2,0,18,4.5,6,L,0.23878074866310156,0.2135,0.183,0.24155999999999997
5,9,17,1,7,16.10399999999999,19,78,1,7,8,4,16.16499999999999,0.183,1.9519999999999986,8.234999999999994,20,2,5,16,79,2,8,44,6,1,72,6,6,L,0.20462025316455695,0.0915,0.24399999999999997,0.18715909090909089
5,9,18,1,15,10.979999999999992,14,50,14,16,21,22,13.663999999999989,1.3419999999999992,0.9149999999999996,0.244,20,4,6,4,64,4,7,4,6,1,72,6,6,L,0.2135,0.3354999999999999,0.1307142857142857,0.061
5,10,19,1,1,19.946999999999985,14,100,79,77,73,33,20.129999999999985,0.9759999999999995,0.244,0.6709999999999998,16,7,1,1,102,7,1,1,3,0.5,23,3.5,6,L,0.1973529411764706,0.13942857142857143,0.244,0.6709999999999998
5,10,20,1,14,12.07799999999999,18,59,93,1,94,62,12.38299999999999,14.944999999999988,1.1589999999999994,5.306999999999996,20,17,6,12,61,58,6,19,3,0,16,4,6,L,0.20299999999999999,0.2576724137931034,0.19316666666666665,0.2793157894736842
5,11,21,1,7,19.153999999999986,16,102,7,103,12,77,19.214999999999986,8.356999999999994,0.6709999999999998,13.663999999999989,17,12,4,14,103,32,4,44,6,0,17,4.25,6,L,0.1865533980582524,0.26115625,0.16775,0.31054545454545446
5,11,22,1,3,50.69099999999996,16,233,27,36,113,19,52.82599999999996,2.9279999999999977,1.1589999999999994,0.7319999999999998,20,7,7,4,242,8,10,4,5,0,18,4.5,6,L,0.2182892561983471,0.366,0.1159,0.183
5,12,23,1,7,14.761999999999988,20,81,2,5,10,115,24.52199999999998,1.2809999999999993,1.524999999999999,0.488,20,4,5,3,114,4,5,3,6,0.5,38,5,6,L,0.21510526315789472,0.3202499999999999,0.30499999999999994,0.16266666666666665
5,12,24,1,12,18.970999999999986,20,87,43,44,102,94,20.007999999999985,5.306999999999996,1.8299999999999987,3.3549999999999973,20,14,7,7,94,23,8,9,5,0,15,3.75,6,L,0.21285106382978722,0.23073913043478259,0.22875,0.3727777777777777
5,13,25,1,2,29.523999999999976,20,134,59,57,49,35,33.915999999999976,0.5489999999999999,0.6099999999999999,0.7929999999999997,20,3,7,2,151,3,7,2,4,0.5,29,4.25,6,L,0.22460927152317878,0.183,0.08714285714285715,0.39649999999999996
5,13,26,1,13,18.848999999999986,19,88,110,113,39,109,23.301999999999982,2.9889999999999977,1.7079999999999989,4.940999999999996,20,10,6,11,105,12,10,26,2,0.5,17,2.75,6,L,0.2219238095238095,0.2490833333333333,0.1708,0.19003846153846152
5,14,27,1,8,17.384999999999987,19,74,104,97,108,33,20.922999999999984,2.3179999999999983,2.2569999999999983,5.184999999999996,20,8,12,13,91,9,15,21,2,0.5,17,2.75,6,L,0.2299230769230769,0.25755555555555554,0.15046666666666664,0.2469047619047619
5,14,28,1,7,13.35899999999999,18,59,3,8,5,4,13.785999999999989,0.061,1.463999999999999,2.0739999999999985,20,1,8,12,61,1,8,13,6,1,72,6,6,L,0.22599999999999998,0.061,0.183,0.15953846153846152
5,15,29,1,3,13.724999999999989,20,67,35,36,56,119,18.665999999999986,1.2199999999999993,10.369999999999992,0.8539999999999996,20,5,17,3,89,6,43,3,5,0,16,4,6,L,0.20973033707865169,0.20333333333333334,0.2411627906976744,0.2846666666666666
5,15,30,1,12,11.589999999999991,20,70,45,37,42,40,12.01699999999999,3.0499999999999976,0.6709999999999998,0.122,20,9,4,1,72,12,5,1,5,1,60,5,6,L,0.16690277777777776,0.25416666666666665,0.13419999999999999,0.122
5,16,31,1,12,17.384999999999987,18,75,39,44,48,102,19.336999999999986,0.183,3.842999999999997,12.62699999999999,20,1,10,17,84,1,13,61,5,0.5,32,4.25,6,L,0.23020238095238094,0.183,0.29561538461538456,0.207
5,16,32,1,7,9.210999999999993,17,45,1,6,9,10,15.24999999999999,1.7079999999999989,1.646999999999999,0.9149999999999996,20,5,10,8,68,5,11,8,6,1,72,6,6,L,0.22426470588235292,0.3415999999999999,0.14972727272727274,0.114375
6,1,1,0,1,28.547999999999977,18,122,81,76,79,74,30.133999999999975,1.4029999999999991,2.3789999999999982,0.6709999999999998,20,7,11,4,127,7,13,4,3,1,36,3,6,L,0.23727559055118108,0.20042857142857143,0.183,0.16775
6,1,2,0,10,31.658999999999974,20,148,90,94,10,62,32.39099999999998,6.282999999999995,4.391999999999997,6.404999999999995,20,18,11,14,150,27,15,27,3,0,16,4,6,L,0.21594,0.23270370370370366,0.29279999999999995,0.2372222222222222
6,2,3,0,5,27.449999999999978,19,134,46,48,45,39,28.730999999999977,1.463999999999999,0.061,1.0979999999999994,20,5,1,5,138,9,1,5,5,1,60,5,6,L,0.20819565217391303,0.16266666666666665,0.061,0.2196
6,2,4,0,2,20.922999999999984,17,88,50,49,106,14,23.54599999999998,0.061,5.550999999999996,7.807999999999994,20,1,11,15,99,1,23,37,4,0,16,4,6,L,0.23783838383838382,0.061,0.2413478260869565,0.211027027027027
6,3,5,0,5,19.336999999999986,20,108,15,93,59,40,39.52799999999997,0.9149999999999996,0.427,0.244,20,2,2,4,197,2,3,4,5,0,18,4.5,6,L,0.20064974619289339,0.4574999999999999,0.14233333333333334,0.061
6,3,6,0,9,27.205999999999978,13,100,72,62,2,68,28.852999999999977,1.8299999999999987,5.7339999999999955,1.7689999999999988,20,8,15,7,108,8,29,9,4,0.5,30,4.5,6,L,0.26715740740740734,0.22874999999999998,0.19772413793103447,0.19655555555555554
6,4,7,0,3,14.578999999999988,18,74,35,66,86,102,16.896999999999988,11.467999999999991,3.476999999999997,2.439999999999998,20,18,10,9,85,38,12,15,5,0,14,3.5,6,L,0.19878823529411763,0.30178947368421044,0.28974999999999995,0.16266666666666665
6,4,8,0,5,55.631999999999955,16,231,40,46,4,59,58.07199999999995,0.5489999999999999,3.4159999999999973,6.282999999999995,20,3,11,15,243,3,13,25,5,0,20,5,6,L,0.23897942386831272,0.183,0.26276923076923075,0.25132
6,5,9,0,1,31.597999999999974,14,125,79,77,105,54,31.780999999999974,0.9149999999999996,4.818999999999996,2.439999999999998,15,4,14,9,126,5,21,13,3,0,12,3,6,L,0.2522301587301587,0.183,0.22947619047619047,0.18769230769230769
6,5,10,0,5,13.23699999999999,14,52,39,43,38,5,13.29799999999999,1.1589999999999994,2.0739999999999985,6.038999999999995,15,7,9,15,53,8,11,26,5,0.5,36,5.25,6,L,0.25090566037735845,0.144875,0.18854545454545452,0.23226923076923073
6,6,11,1,7,10.308999999999992,17,50,3,5,7,10,13.785999999999989,3.903999999999997,7.197999999999994,0.061,20,12,14,1,60,14,29,1,6,1,72,6,6,L,0.22976666666666665,0.27885714285714286,0.24820689655172412,0.061
6,6,12,1,8,14.883999999999988,18,79,97,22,103,39,18.848999999999986,1.524999999999999,3.1719999999999975,0.122,20,7,9,2,96,8,15,2,2,0,15,3.75,6,L,0.19634374999999998,0.190625,0.21146666666666666,0.061
6,7,13,1,1,18.848999999999986,15,87,74,97,82,73,22.325999999999983,0.244,0.122,0.366,20,1,1,2,101,1,1,2,3,0.5,20,2.75,6,L,0.22104950495049502,0.244,0.122,0.183
6,7,14,1,11,32.69599999999998,20,149,44,13,16,118,34.891999999999975,4.330999999999997,2.3179999999999983,4.818999999999996,20,12,9,15,156,15,10,29,4,0,19,4.75,6,L,0.22366666666666665,0.2887333333333333,0.23179999999999998,0.16617241379310344
6,8,15,1,7,22.447999999999983,20,98,6,3,2,104,24.94899999999998,1.2809999999999993,10.857999999999992,2.500999999999998,20,6,18,8,113,6,41,11,6,0.5,38,5,6,L,0.220787610619469,0.21349999999999997,0.2648292682926829,0.22736363636363635
6,8,16,1,13,32.08599999999998,18,147,17,16,113,67,37.02699999999997,12.13899999999999,0.8539999999999996,1.2809999999999993,20,18,6,5,165,51,6,6,2,0,18,4.5,6,L,0.2244060606060606,0.23801960784313722,0.14233333333333334,0.2135
6,9,17,1,2,25.00999999999998,20,126,60,57,37,114,26.53499999999998,0.427,8.234999999999994,6.953999999999994,20,2,18,16,135,3,41,30,4,0,15,3.75,6,L,0.19655555555555554,0.14233333333333334,0.20085365853658535,0.23179999999999998
6,9,18,1,3,46.176999999999964,13,183,35,30,28,36,46.481999999999964,1.2809999999999993,1.8909999999999987,0.244,15,5,7,1,185,6,8,1,5,1,60,5,6,L,0.25125405405405404,0.21349999999999994,0.23637499999999997,0.244
6,10,19,1,7,15.066999999999988,18,76,10,7,2,6,17.811999999999987,1.8909999999999987,1.4029999999999991,0.5489999999999999,20,8,3,3,94,12,3,3,6,1,72,6,6,L,0.18948936170212766,0.15758333333333333,0.4676666666666665,0.183
6,10,20,1,15,17.994999999999987,20,99,15,24,31,22,18.238999999999987,3.720999999999997,12.19999999999999,6.343999999999995,20,12,13,12,101,20,43,17,6,0.5,41,5.75,6,L,0.18058415841584158,0.18605,0.2837209302325581,0.3731764705882352
6,11,21,1,15,44.712999999999965,18,209,24,18,112,17,46.237999999999964,0.061,5.672999999999996,0.061,20,1,11,1,215,1,18,1,6,0.5,38,5,6,L,0.21506046511627905,0.061,0.3151666666666666,0.061
6,11,22,1,7,39.52799999999997,16,174,11,7,5,36,39.71099999999997,3.781999999999997,14.456999999999988,1.2199999999999993,17,12,17,6,175,16,59,6,6,0.5,41,5.75,6,L,0.22691999999999998,0.23637499999999997,0.2450338983050847,0.20333333333333334
6,12,23,1,12,28.547999999999977,16,125,44,42,92,96,33.183999999999976,3.0499999999999976,0.305,5.367999999999996,20,11,1,13,147,15,1,22,5,0,16,4,6,L,0.22574149659863943,0.2033333333333333,0.305,0.24399999999999997
6,12,24,1,7,12.80999999999999,17,54,1,8,3,6,16.591999999999988,0.9149999999999996,2.9889999999999977,0.122,20,5,11,2,65,5,16,2,6,1,72,6,6,L,0.25526153846153843,0.183,0.1868125,0.061
6,13,25,1,7,19.946999999999985,17,105,4,10,11,28,20.007999999999985,1.4029999999999991,1.1589999999999994,14.090999999999989,18,6,4,15,106,9,5,53,6,0.5,41,5.75,6,L,0.18875471698113205,0.15588888888888888,0.23179999999999998,0.2658679245283018
6,13,26,1,13,12.26099999999999,18,56,111,112,115,18,16.34799999999999,2.439999999999998,1.2199999999999993,20.922999999999984,20,7,5,17,71,9,5,87,2,0.5,18,3,6,L,0.23025352112676054,0.2711111111111111,0.244,0.24049425287356319
6,14,27,1,8,14.090999999999989,18,64,102,3,48,101,14.517999999999988,18.970999999999986,1.463999999999999,0.061,20,17,3,1,66,66,3,1,2,0,15,3.75,6,L,0.21996969696969695,0.2874393939393939,0.4879999999999999,0.061
6,14,28,1,3,28.181999999999977,18,130,35,27,29,21,31.414999999999974,1.0369999999999995,3.1109999999999975,15.066999999999988,20,4,9,17,140,4,15,59,5,0.5,36,5.25,6,L,0.22439285714285714,0.25925,0.2074,0.25537288135593217
6,15,29,1,11,12.50499999999999,16,64,79,64,44,2,18.299999999999986,0.061,9.820999999999993,11.101999999999991,20,1,17,17,79,1,48,50,4,0,18,4.5,6,L,0.23164556962025315,0.061,0.20460416666666664,0.22204
6,15,30,1,13,24.58299999999998,19,120,115,114,120,118,25.61999999999998,1.463999999999999,3.1109999999999975,0.244,20,4,9,2,123,4,10,2,2,1,24,2,6,L,0.20829268292682926,0.366,0.3111,0.122
6,16,31,1,14,22.325999999999983,19,103,62,90,85,63,37.27099999999997,0.061,0.183,2.439999999999998,20,1,2,12,172,1,2,16,3,0,14,3.5,6,L,0.21669186046511626,0.061,0.0915,0.1525
6,16,32,1,7,15.676999999999987,15,82,10,1,35,2,16.652999999999988,0.183,18.299999999999986,3.0499999999999976,18,1,18,12,86,1,75,14,6,0.5,41,5.75,6,L,0.19363953488372093,0.183,0.24399999999999994,0.21785714285714283
7,1,1,0,6,11.467999999999991,16,53,7,4,9,12,12.93199999999999,11.589999999999991,3.598999999999997,3.781999999999997,20,16,13,10,60,41,22,16,6,1,72,6,6,L,0.21553333333333333,0.28268292682926827,0.16359090909090906,0.23637499999999997
7,1,2,0,7,23.42399999999998,19,118,17,14,22,23,26.16899999999998,0.6099999999999999,2.1959999999999984,2.2569999999999983,20,3,10,3,135,4,11,4,6,1,72,6,6,L,0.19384444444444443,0.1525,0.1996363636363636,0.5642499999999998
7,2,3,0,9,10.003999999999992,18,52,71,114,86,117,16.34799999999999,14.517999999999988,3.4159999999999973,11.284999999999991,20,17,11,17,77,55,15,40,4,0,11,2.75,6,L,0.21231168831168828,0.26396363636363634,0.2277333333333333,0.28212499999999996
7,2,4,0,2,26.77899999999998,18,118,55,75,53,27,27.327999999999978,8.844999999999994,0.9759999999999995,2.439999999999998,20,16,4,10,123,34,5,13,4,0,16,4,6,L,0.22217886178861787,0.2601470588235294,0.19519999999999998,0.18769230769230769
7,3,5,0,1,28.547999999999977,19,131,76,77,59,75,31.963999999999974,10.613999999999992,1.9519999999999986,2.9889999999999977,20,16,10,9,147,43,12,12,3,0.5,22,3.25,6,L,0.2174421768707483,0.24683720930232556,0.16266666666666665,0.2490833333333333
7,3,6,0,6,31.902999999999974,20,140,2,3,7,93,31.963999999999974,2.439999999999998,1.9519999999999986,4.208999999999997,20,6,9,13,141,11,12,20,6,0.5,39,5.25,6,L,0.22669503546099287,0.2218181818181818,0.16266666666666665,0.21044999999999997
7,4,7,0,6,16.530999999999988,20,78,2,11,1,9,18.299999999999986,0.244,1.4029999999999991,2.622999999999998,20,3,4,7,85,3,6,10,6,1,72,6,6,L,0.2152941176470588,0.08133333333333333,0.23383333333333334,0.2622999999999999
7,4,8,0,7,8.417999999999994,13,42,14,18,19,56,9.820999999999993,1.7689999999999988,3.3549999999999973,6.343999999999995,17,8,9,13,46,9,14,27,6,0.5,40,5.5,6,L,0.21349999999999997,0.19655555555555554,0.23964285714285713,0.23496296296296296
7,5,9,0,7,18.421999999999986,17,95,13,24,21,70,18.482999999999986,4.452999999999997,3.9649999999999967,3.1719999999999975,18,14,11,10,96,23,19,14,6,0.5,40,5.5,6,L,0.19253125,0.1936086956521739,0.20868421052631578,0.22657142857142853
7,5,10,0,6,18.116999999999987,19,91,11,6,3,5,19.580999999999985,0.9759999999999995,0.9759999999999995,0.6099999999999999,20,5,4,1,101,5,5,2,6,1,72,6,6,L,0.19387128712871288,0.19519999999999998,0.19519999999999998,0.305
7,6,11,1,12,16.530999999999988,19,71,13,72,46,47,25.314999999999984,1.1589999999999994,2.1349999999999985,4.086999999999997,20,4,10,12,104,4,12,15,5,0,20,5,6,L,0.24341346153846152,0.28974999999999995,0.17791666666666664,0.27246666666666663
7,6,12,1,3,23.42399999999998,19,93,33,35,25,90,24.33899999999998,2.683999999999998,2.744999999999998,6.770999999999995,20,10,9,10,97,15,15,24,5,0.5,33,4.5,6,L,0.25091752577319587,0.17893333333333333,0.183,0.2821249999999999
7,7,13,1,8,24.82699999999998,20,103,106,101,20,107,25.80299999999998,1.585999999999999,1.9519999999999986,0.183,20,8,7,2,108,10,7,2,2,0.5,18,3,6,L,0.23891666666666664,0.1586,0.2788571428571428,0.0915
7,7,14,1,7,20.312999999999985,18,89,1,5,11,51,20.373999999999985,3.2939999999999974,2.683999999999998,12.93199999999999,19,8,8,15,90,14,9,47,6,0.5,40,5.5,6,L,0.22637777777777776,0.2352857142857143,0.2982222222222222,0.27514893617021274
7,8,15,1,3,17.201999999999988,17,79,28,34,35,32,18.238999999999987,0.061,0.7929999999999997,9.088999999999993,20,1,3,14,82,1,4,48,5,1,60,5,6,L,0.22242682926829266,0.061,0.19824999999999998,0.18935416666666666
7,8,16,1,12,21.532999999999983,14,95,38,5,66,64,25.61999999999998,20.678999999999984,2.1959999999999984,0.366,20,19,7,2,108,93,7,2,5,0,19,4.75,6,L,0.2372222222222222,0.2223548387096774,0.3137142857142856,0.183
7,9,17,1,1,13.663999999999989,15,78,82,75,77,65,14.822999999999988,0.305,0.7319999999999998,33.183999999999976,20,2,4,16,84,2,4,134,3,0.5,22,3.25,6,L,0.1764642857142857,0.1525,0.183,0.2476417910447761
7,9,18,1,7,9.759999999999993,16,59,11,1,2,90,10.186999999999992,6.343999999999995,1.7079999999999989,7.441999999999994,18,14,6,15,61,25,7,33,6,0.5,39,5.25,6,L,0.167,0.25376,0.244,0.2255151515151515
7,10,19,1,15,4.818999999999996,15,28,13,24,86,112,4.940999999999996,3.2329999999999974,4.330999999999997,6.709999999999995,17,8,12,15,30,13,20,38,6,0,17,4.25,6,L,0.16469999999999999,0.24869230769230766,0.21655,0.17657894736842106
7,10,20,1,7,11.589999999999991,16,56,5,8,9,11,13.846999999999989,4.7579999999999965,3.2939999999999974,0.6709999999999998,20,12,10,2,70,17,18,2,6,1,72,6,6,L,0.19781428571428572,0.2798823529411764,0.183,0.33549999999999996
7,11,21,1,15,24.88799999999998,20,137,22,19,21,42,26.16899999999998,23.301999999999982,2.622999999999998,2.9279999999999977,20,18,12,10,144,102,14,11,6,0.5,41,5.75,6,L,0.18172916666666664,0.22845098039215683,0.18735714285714283,0.26618181818181813
7,11,22,1,7,27.14499999999998,15,115,5,7,12,9,29.706999999999976,1.2199999999999993,0.061,10.247999999999992,20,5,1,16,129,5,1,41,6,1,72,6,6,L,0.23028682170542633,0.24399999999999997,0.061,0.2499512195121951
7,12,23,1,3,15.432999999999987,20,84,35,31,25,29,15.676999999999987,0.366,0.7319999999999998,3.3549999999999973,20,2,3,6,86,2,3,10,5,1,60,5,6,L,0.1822906976744186,0.183,0.244,0.3354999999999999
7,12,24,1,12,38.36899999999997,18,183,109,6,7,48,44.041999999999966,19.702999999999985,2.3789999999999982,0.5489999999999999,20,18,7,5,208,72,11,5,5,0,19,4.75,6,L,0.2117403846153846,0.27365277777777774,0.21627272727272726,0.1098
7,13,25,1,7,13.785999999999989,20,75,4,11,95,119,13.846999999999989,0.183,7.136999999999994,5.7949999999999955,20,2,12,13,76,2,19,25,6,0,17,4.25,6,L,0.1821973684210526,0.0915,0.3756315789473683,0.23179999999999998
7,13,26,1,8,14.456999999999988,18,70,97,14,100,103,20.617999999999984,11.467999999999991,5.855999999999995,8.844999999999994,20,17,16,16,92,34,24,33,2,0.5,18,3,6,L,0.2241086956521739,0.33729411764705874,0.24399999999999997,0.268030303030303
7,14,27,1,8,29.523999999999976,20,134,105,18,99,65,30.316999999999975,11.284999999999991,0.061,1.0369999999999995,20,16,1,5,138,56,1,6,2,0,14,3.5,6,L,0.21968840579710144,0.20151785714285714,0.061,0.17283333333333334
7,14,28,1,3,28.364999999999977,20,139,32,33,6,96,28.547999999999977,1.646999999999999,19.519999999999985,6.221999999999995,20,9,17,14,141,10,76,23,5,0,19,4.75,6,L,0.20246808510638298,0.16469999999999999,0.25684210526315787,0.27052173913043476
7,15,29,1,3,17.079999999999988,20,87,28,29,32,36,17.201999999999988,2.9279999999999977,0.061,0.427,20,10,1,3,89,13,1,3,5,1,60,5,6,L,0.19328089887640448,0.2252307692307692,0.061,0.14233333333333334
7,15,30,1,15,22.874999999999982,14,112,19,16,24,117,23.057999999999982,0.366,7.380999999999994,4.879999999999996,16,2,13,11,114,2,23,19,6,0.5,38,5,6,L,0.2022631578947368,0.183,0.3209130434782608,0.25684210526315787
7,16,31,1,2,29.401999999999976,12,131,17,16,58,56,38.42999999999997,26.10799999999998,0.061,0.244,20,18,1,2,169,107,1,2,4,0,20,5,6,L,0.227396449704142,0.24399999999999997,0.061,0.122
7,16,32,1,12,27.571999999999978,20,127,46,47,11,86,31.170999999999975,2.0129999999999986,18.604999999999986,0.305,20,9,16,2,146,10,77,2,5,0,19,4.75,6,L,0.21349999999999997,0.2013,0.2416233766233766,0.1525
8,1,1,0,7,30.133999999999975,20,136,15,18,77,20,30.194999999999975,3.476999999999997,3.3549999999999973,1.7689999999999988,20,9,11,9,137,14,18,13,6,0.5,39,5.25,6,L,0.2204014598540146,0.24835714285714286,0.18638888888888888,0.13607692307692307
8,1,2,0,3,25.55899999999998,20,130,10,120,34,30,36.29499999999997,0.061,0.5489999999999999,0.8539999999999996,20,1,4,5,173,1,4,5,5,0,18,4.5,6,L,0.20979768786127165,0.061,0.13724999999999998,0.1708
8,2,3,0,7,24.46099999999998,19,110,16,119,20,45,24.52199999999998,7.685999999999994,8.295999999999994,0.183,20,13,16,1,111,25,42,1,6,0,19,4.75,6,L,0.2209189189189189,0.30744,0.19752380952380952,0.183
8,2,4,0,10,35.379999999999974,20,165,96,85,94,89,38.30799999999997,0.427,2.0739999999999985,0.183,20,2,9,2,184,2,11,2,3,1,36,3,6,L,0.20819565217391303,0.2135,0.18854545454545454,0.0915
8,3,5,0,3,14.273999999999988,19,75,49,111,114,116,55.204999999999956,0.183,3.659999999999997,3.4159999999999973,20,2,9,11,254,2,9,17,5,0.5,16,2.5,6,L,0.21734251968503937,0.0915,0.4066666666666665,0.2009411764705882
8,3,6,0,9,15.249999999999988,15,78,66,70,61,13,16.34799999999999,1.2809999999999993,0.427,14.761999999999988,17,4,2,17,80,5,2,64,4,0.5,30,4.5,6,L,0.20434999999999998,0.2562,0.2135,0.23065624999999998
8,4,7,0,5,22.508999999999983,20,120,37,40,44,114,23.362999999999982,0.7319999999999998,2.805999999999998,5.7339999999999955,20,3,9,8,125,3,13,15,5,0.5,32,4.25,6,L,0.186904,0.244,0.2158461538461538,0.3822666666666666
8,4,8,0,6,17.506999999999987,18,80,3,5,7,11,17.567999999999987,7.990999999999993,1.8909999999999987,0.183,19,14,10,2,81,35,11,2,6,1,72,6,6,L,0.21688888888888888,0.2283142857142857,0.1719090909090909,0.0915
8,5,9,0,7,19.702999999999985,19,85,17,22,24,38,21.532999999999983,1.7079999999999989,6.282999999999995,0.427,20,4,15,2,93,6,33,2,6,0.5,41,5.75,6,L,0.23153763440860212,0.2846666666666666,0.19039393939393937,0.2135
8,5,10,0,2,24.21699999999998,17,116,30,95,2,115,63.62299999999995,1.585999999999999,2.3789999999999982,0.244,20,4,8,1,274,4,11,1,4,0,16,4,6,L,0.23220072992700727,0.39649999999999985,0.21627272727272726,0.244
8,6,11,1,11,43.61499999999997,20,196,72,24,14,61,46.176999999999964,2.3179999999999983,1.3419999999999992,0.7319999999999998,20,8,5,4,212,10,7,4,4,0,20,5,6,L,0.21781603773584904,0.23179999999999998,0.1917142857142857,0.183
8,6,12,1,2,33.122999999999976,19,160,50,55,87,89,39.71099999999997,0.427,4.391999999999997,3.842999999999997,20,2,11,9,186,2,16,12,4,0,14,3.5,6,L,0.21349999999999997,0.2135,0.2744999999999999,0.3202499999999999
8,7,13,1,1,14.212999999999989,20,70,79,82,74,58,14.822999999999988,1.463999999999999,3.2329999999999974,7.136999999999994,20,6,11,13,73,8,15,27,3,0.5,22,3.25,6,L,0.20305479452054792,0.183,0.2155333333333333,0.2643333333333333
8,7,14,1,8,28.913999999999977,20,134,99,105,103,98,29.096999999999976,4.940999999999996,1.1589999999999994,1.9519999999999986,20,11,6,9,137,19,6,12,2,1,24,2,6,L,0.21238686131386858,0.2600526315789473,0.19316666666666663,0.16266666666666665
8,8,15,1,7,18.360999999999986,19,99,7,4,45,8,18.848999999999986,4.269999999999997,9.637999999999993,1.3419999999999992,20,14,15,7,102,22,43,7,6,0.5,41,5.75,6,L,0.18479411764705883,0.19409090909090906,0.2241395348837209,0.1917142857142857
8,8,16,1,15,17.445999999999987,18,82,13,24,19,52,18.543999999999986,1.2199999999999993,2.0739999999999985,2.683999999999998,20,4,5,6,87,4,7,9,6,0.5,40,5.5,6,L,0.2131494252873563,0.30499999999999994,0.29628571428571426,0.29822222222222217
8,9,17,1,15,16.957999999999988,18,81,17,19,20,114,17.018999999999988,10.796999999999992,1.2809999999999993,0.6709999999999998,19,19,9,5,82,52,9,5,6,0.5,38,5,6,L,0.20754878048780487,0.2076346153846154,0.14233333333333334,0.13419999999999999
8,9,18,1,8,19.092999999999986,19,84,103,98,58,7,19.885999999999985,3.659999999999997,9.027999999999993,7.075999999999994,20,11,16,16,88,11,34,31,2,0,14,3.5,6,L,0.22597727272727272,0.33272727272727265,0.26552941176470585,0.228258064516129
8,10,19,1,11,25.74199999999998,15,118,72,80,67,36,26.16899999999998,8.661999999999994,1.3419999999999992,2.8669999999999978,17,16,7,8,120,48,8,10,4,0,16,4,6,L,0.21807499999999996,0.18045833333333333,0.16775,0.28669999999999995
8,10,20,1,2,51.48399999999996,18,203,60,54,51,57,52.88699999999996,1.0369999999999995,2.9279999999999977,2.9279999999999977,20,7,11,12,211,7,13,13,4,1,48,4,6,L,0.25064928909952605,0.14814285714285713,0.2252307692307692,0.2252307692307692
8,11,21,1,2,15.127999999999988,15,76,53,49,7,2,16.16499999999999,0.427,9.149999999999993,7.563999999999994,20,6,17,14,81,6,45,25,4,0,20,5,6,L,0.19956790123456788,0.07116666666666667,0.2033333333333333,0.30255999999999994
8,11,22,1,13,23.91199999999998,20,114,111,118,120,40,27.876999999999978,0.427,0.122,14.334999999999988,20,2,1,17,134,2,1,57,2,0.5,17,2.75,6,L,0.2080373134328358,0.2135,0.122,0.25149122807017543
8,12,23,1,7,30.133999999999975,20,137,11,8,10,1,31.292999999999974,2.9279999999999977,2.683999999999998,0.305,20,11,9,1,141,11,13,1,6,1,72,6,6,L,0.22193617021276593,0.26618181818181813,0.20646153846153845,0.305
8,12,24,1,1,11.77299999999999,17,61,75,82,76,73,12.01699999999999,4.147999999999997,0.122,1.7689999999999988,19,13,1,5,63,20,1,7,3,1,36,3,6,L,0.19074603174603175,0.2074,0.122,0.2527142857142856
8,13,25,1,7,15.859999999999987,13,90,5,70,8,9,15.920999999999987,1.3419999999999992,0.5489999999999999,2.2569999999999983,14,1,5,13,91,2,6,15,6,0.5,40,5.5,6,L,0.17495604395604394,0.6709999999999998,0.0915,0.15046666666666667
8,13,26,1,15,16.10399999999999,13,75,17,18,109,42,16.896999999999988,0.5489999999999999,12.56599999999999,9.881999999999993,15,3,15,14,77,3,52,37,6,0,19,4.75,6,L,0.2194415584415584,0.183,0.2416538461538461,0.26708108108108103
8,14,27,1,8,36.17299999999997,18,174,46,102,108,17,46.115999999999964,5.062999999999996,0.244,0.427,20,14,3,5,209,16,3,5,2,0,15,3.75,6,L,0.22065071770334926,0.3164374999999999,0.08133333333333333,0.0854
8,14,28,1,3,14.517999999999988,13,62,66,96,116,69,42.27299999999997,1.2199999999999993,0.122,0.9759999999999995,20,6,1,8,170,6,1,8,5,0,13,3.25,6,L,0.2486647058823529,0.2033333333333333,0.122,0.122
8,15,29,1,2,72.2850000000009,17,312,116,13,44,39,81.4960000000009,2.622999999999998,0.9759999999999995,0.061,20,8,3,1,349,9,4,1,4,0,18,4.5,6,L,0.233512893982808,0.29144444444444445,0.244,0.061
8,15,30,1,3,36.11199999999997,14,143,33,30,28,26,37.88099999999997,0.8539999999999996,2.1959999999999984,0.488,20,4,8,2,151,4,12,2,5,1,60,5,6,L,0.25086754966887415,0.2135,0.18299999999999997,0.244
8,16,31,1,3,18.177999999999987,19,89,30,33,34,98,18.238999999999987,0.244,5.7339999999999955,10.247999999999992,20,2,12,15,90,2,29,34,5,0.5,32,4.25,6,L,0.20265555555555553,0.122,0.19772413793103447,0.3014117647058823
8,16,32,1,15,16.652999999999988,13,82,16,21,20,53,17.140999999999988,0.7929999999999997,0.6099999999999999,4.330999999999997,16,3,3,15,85,3,3,22,6,0.5,40,5.5,6,L,0.20165882352941175,0.2643333333333333,0.2033333333333333,0.19686363636363635
9,1,1,0,10,25.80299999999998,19,121,88,108,26,4,26.71799999999998,6.709999999999995,0.6709999999999998,9.759999999999993,20,9,3,15,124,20,3,41,3,0,16,4,6,L,0.21546774193548388,0.3354999999999999,0.22366666666666665,0.23804878048780487
9,1,2,0,5,19.946999999999985,20,96,37,64,21,75,20.190999999999985,9.393999999999993,1.7689999999999988,0.244,20,15,8,2,98,38,11,3,5,0,18,4.5,6,L,0.20603061224489794,0.24721052631578946,0.1608181818181818,0.08133333333333333
9,2,3,0,6,19.275999999999986,20,77,10,4,9,25,21.593999999999983,0.061,0.122,6.709999999999995,20,1,2,12,88,1,2,24,6,0.5,41,5.75,6,L,0.24538636363636362,0.061,0.061,0.2795833333333333
9,2,4,0,2,42.45599999999997,18,168,51,50,22,17,44.407999999999966,1.7079999999999989,6.221999999999995,2.8669999999999978,20,8,16,8,178,9,29,10,4,0,20,5,6,L,0.2494831460674157,0.18977777777777777,0.214551724137931,0.2867
9,3,5,0,5,26.22999999999998,20,129,82,79,57,102,39.40599999999997,2.1349999999999985,1.0979999999999994,0.8539999999999996,20,5,4,5,177,5,4,5,5,0,12,3,6,L,0.22263276836158188,0.4269999999999999,0.27449999999999997,0.1708
9,3,6,0,3,19.092999999999986,13,90,33,29,11,114,22.569999999999983,0.122,20.861999999999984,1.4029999999999991,20,1,18,8,102,1,97,10,5,0,18,4.5,6,L,0.22127450980392155,0.122,0.2150721649484536,0.1403
9,4,7,0,5,19.885999999999985,20,93,1,112,12,38,31.536999999999978,1.524999999999999,3.2329999999999974,0.183,20,6,9,1,146,7,12,1,5,0,19,4.75,6,L,0.21600684931506847,0.21785714285714283,0.26941666666666664,0.183
9,4,8,0,7,12.01699999999999,17,58,24,13,30,14,14.151999999999989,6.8319999999999945,0.305,2.561999999999998,20,15,2,9,66,24,2,9,6,0.5,41,5.75,6,L,0.2144242424242424,0.2846666666666666,0.1525,0.2846666666666666
9,5,9,0,4,16.896999999999988,18,72,3,6,31,25,31.902999999999977,29.462999999999976,0.244,1.4029999999999991,20,19,1,4,135,113,1,5,2,0,22,5.5,6,L,0.23631851851851848,0.2607345132743363,0.244,0.2805999999999999
9,5,10,0,2,37.27099999999997,19,181,56,57,54,116,38.91799999999997,0.9149999999999996,0.244,5.916999999999995,20,4,3,14,187,4,3,25,4,0.5,26,3.5,6,L,0.20811764705882352,0.22874999999999995,0.08133333333333333,0.23667999999999997
9,6,11,1,2,33.305999999999976,20,156,53,33,16,14,33.366999999999976,9.088999999999993,0.427,2.439999999999998,20,15,2,6,157,30,3,6,4,0,21,5.25,6,L,0.21252866242038215,0.3029666666666666,0.14233333333333334,0.4066666666666666
9,6,12,1,1,20.617999999999984,17,85,82,66,76,75,22.020999999999983,0.5489999999999999,0.061,3.720999999999997,20,3,1,9,89,3,1,14,3,0.5,22,3.25,6,L,0.2474269662921348,0.183,0.061,0.26578571428571424
9,7,13,1,2,15.859999999999987,20,60,55,52,86,89,16.774999999999988,2.3789999999999982,2.439999999999998,0.6709999999999998,20,12,8,3,63,15,8,4,4,0,14,3.5,6,L,0.2662698412698412,0.1586,0.30499999999999994,0.16775
9,7,14,1,3,14.273999999999988,19,69,33,28,31,14,16.774999999999988,0.183,2.3179999999999983,9.027999999999993,20,2,8,15,79,2,9,32,5,0.5,36,5.25,6,L,0.21234177215189873,0.0915,0.25755555555555554,0.28212499999999996
9,8,15,1,11,24.52199999999998,17,126,64,61,4,103,25.61999999999998,4.7579999999999965,23.48499999999998,2.0739999999999985,20,10,18,6,131,15,95,7,4,0,16,4,6,L,0.19557251908396944,0.3171999999999999,0.24721052631578946,0.29628571428571426
9,8,16,1,2,20.190999999999985,20,115,51,21,58,57,20.678999999999984,2.439999999999998,1.1589999999999994,4.7579999999999965,20,7,8,13,118,9,9,23,4,0.5,30,4.5,6,L,0.1752457627118644,0.2711111111111111,0.12877777777777777,0.2068695652173913
9,9,17,1,3,16.713999999999988,19,83,35,36,91,11,17.872999999999987,4.818999999999996,11.040999999999991,1.7079999999999989,20,12,16,10,86,19,42,11,5,0,19,4.75,6,L,0.20782558139534882,0.2536315789473684,0.2628809523809524,0.15527272727272726
9,9,18,1,15,32.939999999999976,20,132,18,120,16,24,33.732999999999976,4.635999999999997,8.478999999999994,0.061,20,14,14,1,139,22,32,1,6,0.5,38,5,6,L,0.24268345323741006,0.2107272727272727,0.26496875,0.061
9,10,19,1,2,24.27799999999998,18,104,56,60,98,36,27.632999999999978,0.8539999999999996,4.879999999999996,1.7689999999999988,20,7,11,5,117,9,20,5,4,0,15,3.75,6,L,0.23617948717948717,0.09488888888888888,0.24399999999999997,0.35379999999999995
9,10,20,1,7,38.24699999999997,17,167,3,39,8,85,38.30799999999997,3.476999999999997,4.818999999999996,1.2809999999999993,18,8,12,5,168,10,21,6,6,0,20,5,6,L,0.22802380952380952,0.3476999999999999,0.22947619047619044,0.21349999999999997
9,11,21,1,3,50.69099999999996,16,203,90,34,33,32,51.78899999999996,1.0979999999999994,1.0979999999999994,2.3789999999999982,19,5,7,5,206,5,10,6,5,0.5,33,4.5,6,L,0.25140291262135916,0.2196,0.1098,0.39649999999999985
9,11,22,1,2,18.543999999999986,20,89,58,49,24,52,18.787999999999986,11.162999999999991,8.905999999999993,5.062999999999996,20,16,16,12,92,40,35,17,4,0.5,30,4.5,6,L,0.2042173913043478,0.27907499999999996,0.2544571428571428,0.29782352941176465
9,12,23,1,7,23.60699999999998,19,110,6,5,4,12,23.85099999999998,0.366,7.319999999999994,0.427,20,4,16,3,112,4,33,3,6,1,72,6,6,L,0.21295535714285713,0.0915,0.2218181818181818,0.14233333333333334
9,12,24,1,13,12.93199999999999,15,60,119,13,58,111,15.859999999999987,22.630999999999982,2.744999999999998,0.8539999999999996,20,18,9,3,71,102,17,3,2,0,14,3.5,6,L,0.22338028169014082,0.22187254901960782,0.16147058823529412,0.2846666666666667
9,13,25,1,7,11.101999999999991,18,56,3,9,6,71,14.151999999999989,0.9149999999999996,0.9759999999999995,1.0369999999999995,20,5,5,4,70,5,5,5,6,0.5,40,5.5,6,L,0.20217142857142856,0.183,0.19519999999999998,0.2074
9,13,26,1,15,9.820999999999993,19,46,13,14,22,106,14.45699999999999,2.0739999999999985,1.0979999999999994,2.439999999999998,20,11,6,8,64,12,8,10,6,0.5,38,5,6,L,0.22589062499999998,0.17283333333333334,0.13724999999999998,0.244
9,14,27,1,7,9.210999999999993,17,43,8,5,1,2,10.674999999999992,4.391999999999997,3.3549999999999973,3.2329999999999974,20,11,10,7,47,18,13,8,6,1,72,6,6,L,0.22712765957446807,0.244,0.25807692307692304,0.40412499999999985
9,14,28,1,15,12.56599999999999,15,64,21,14,15,23,13.602999999999989,4.147999999999997,2.0739999999999985,2.2569999999999983,18,11,6,10,67,16,7,10,6,1,72,6,6,L,0.20302985074626864,0.25925,0.29628571428571426,0.22569999999999998
9,15,29,1,12,14.517999999999988,18,72,38,41,46,114,16.16499999999999,2.9889999999999977,2.439999999999998,7.136999999999994,20,12,3,14,81,16,4,29,5,0.5,32,4.25,6,L,0.19956790123456788,0.1868125,0.6099999999999998,0.24610344827586206
9,15,30,1,15,14.944999999999988,19,73,13,23,21,89,15.371999999999987,1.0369999999999995,6.038999999999995,1.0369999999999995,20,5,12,3,77,5,26,4,6,0.5,39,5.25,6,L,0.19963636363636364,0.2074,0.23226923076923076,0.25925
9,16,31,1,11,18.665999999999986,18,82,68,71,66,40,19.397999999999985,8.478999999999994,1.646999999999999,4.208999999999997,20,16,5,12,85,38,5,20,4,0.5,29,4.25,6,L,0.22821176470588234,0.2231315789473684,0.32939999999999997,0.21045
9,16,32,1,8,23.240999999999982,19,115,13,99,24,20,46.84799999999996,1.463999999999999,8.417999999999994,9.576999999999993,20,5,16,15,208,8,34,41,2,0.5,38,5,6,L,0.22523076923076918,0.183,0.24758823529411764,0.23358536585365852
10,1,1,0,9,16.469999999999988,19,88,13,68,22,30,36.96599999999997,2.744999999999998,0.061,0.5489999999999999,20,10,1,3,169,11,1,4,4,0,21,5.25,6,L,0.21873372781065084,0.24954545454545451,0.061,0.13724999999999998
10,1,2,0,5,15.005999999999988,17,78,41,40,9,7,17.811999999999987,2.9889999999999977,8.478999999999994,5.428999999999996,20,10,17,12,87,12,30,23,5,0,22,5.5,6,L,0.20473563218390803,0.24908333333333332,0.2826333333333333,0.23604347826086955
10,2,3,0,3,23.72899999999998,18,121,63,92,90,104,40.13799999999997,11.223999999999991,2.744999999999998,3.1109999999999975,20,18,11,10,188,39,17,12,5,0,12,3,6,L,0.21349999999999997,0.28779487179487173,0.16147058823529412,0.25925
10,2,4,0,7,20.678999999999984,18,91,18,57,119,118,21.105999999999984,6.587999999999995,3.4159999999999973,4.330999999999997,20,12,10,11,93,23,15,17,6,0,14,3.5,6,L,0.22694623655913979,0.2864347826086956,0.2277333333333333,0.2547647058823529
10,3,5,0,3,25.80299999999998,18,116,35,33,30,15,26.29099999999998,0.183,1.4029999999999991,10.186999999999992,20,1,5,15,119,1,6,39,5,0.5,36,5.25,6,L,0.22093277310924367,0.183,0.23383333333333334,0.26120512820512815
10,3,6,0,5,32.51299999999998,20,159,3,40,9,73,72.71199999999995,0.061,3.659999999999997,0.7319999999999998,20,1,15,2,317,1,18,2,5,0,20,5,6,L,0.22937539432176657,0.061,0.2033333333333333,0.366
10,4,7,0,9,17.994999999999987,20,89,62,33,16,24,23.48499999999998,12.07799999999999,0.9149999999999996,8.600999999999994,20,16,3,16,110,38,3,39,4,0,21,5.25,6,L,0.21349999999999997,0.3178421052631578,0.305,0.22053846153846152
10,4,8,0,6,11.650999999999991,17,59,2,3,8,43,13.602999999999989,5.062999999999996,0.6709999999999998,3.9649999999999967,20,14,6,11,70,25,6,20,6,0.5,41,5.75,6,L,0.1943285714285714,0.20252,0.11183333333333334,0.19825
10,5,9,0,3,20.434999999999985,20,103,103,82,80,11,32.45199999999998,4.818999999999996,17.140999999999988,3.537999999999997,20,8,17,13,153,12,70,19,5,0,14,3.5,6,L,0.2121045751633987,0.40158333333333324,0.24487142857142855,0.18621052631578947
10,5,10,0,5,31.597999999999974,20,152,45,43,37,14,34.464999999999975,3.537999999999997,0.7929999999999997,0.7929999999999997,20,10,3,5,164,17,4,5,5,0.5,36,5.25,6,L,0.21015243902439024,0.2081176470588235,0.19824999999999998,0.1586
10,6,11,1,2,23.48499999999998,20,111,60,50,40,95,25.25399999999998,2.0129999999999986,2.0739999999999985,0.488,20,8,9,3,118,10,11,3,4,0,16,4,6,L,0.21401694915254235,0.20129999999999998,0.18854545454545454,0.16266666666666665
10,6,12,1,1,22.020999999999983,15,101,79,77,73,69,23.240999999999982,0.122,5.611999999999996,1.585999999999999,20,2,11,6,106,2,16,7,3,0.5,22,3.25,6,L,0.21925471698113205,0.061,0.3507499999999999,0.22657142857142856
10,7,13,1,8,14.517999999999988,19,62,102,13,16,68,15.249999999999988,5.001999999999996,9.393999999999993,0.488,20,11,17,4,65,26,51,4,2,0,18,4.5,6,L,0.2346153846153846,0.19238461538461538,0.18419607843137253,0.122
10,7,14,1,3,18.116999999999987,17,85,30,34,2,25,19.946999999999985,11.406999999999991,27.998999999999977,0.183,20,15,18,2,95,40,124,2,5,0.5,36,5.25,6,L,0.20996842105263155,0.28517499999999996,0.22579838709677416,0.0915
10,8,15,1,2,42.51699999999997,18,175,53,33,32,31,42.57799999999997,14.212999999999989,1.585999999999999,1.8909999999999987,19,19,7,10,176,60,8,12,4,0.5,34,4.75,6,L,0.24192045454545452,0.2368833333333333,0.19824999999999998,0.15758333333333333
10,8,16,1,13,26.47399999999998,19,119,118,16,110,24,34.708999999999975,1.1589999999999994,0.061,1.4029999999999991,20,4,1,5,144,4,1,6,2,0,16,4,6,L,0.2410347222222222,0.28974999999999995,0.061,0.2338333333333333
10,9,17,1,15,13.663999999999989,17,68,18,20,102,13,16.34799999999999,0.061,10.552999999999992,19.336999999999986,20,1,17,17,81,1,40,78,6,0.5,38,5,6,L,0.20182716049382715,0.061,0.263825,0.24791025641025638
10,9,18,1,7,11.101999999999991,17,51,2,8,11,80,11.162999999999991,1.3419999999999992,16.04299999999999,0.305,18,4,16,1,52,4,56,1,6,0.5,39,5.25,6,L,0.2146730769230769,0.3354999999999999,0.2864821428571428,0.305
10,10,19,1,12,23.48499999999998,20,103,1,41,80,64,26.41299999999998,0.122,2.1959999999999984,6.282999999999995,20,2,7,14,117,2,9,30,5,0,18,4.5,6,L,0.22575213675213673,0.061,0.24399999999999997,0.20943333333333333
10,10,20,1,8,41.66299999999997,17,194,103,87,102,100,43.24899999999997,3.476999999999997,0.7929999999999997,0.122,20,10,6,2,202,15,6,2,2,0.5,15,2.25,6,L,0.2141039603960396,0.23179999999999998,0.13216666666666665,0.061
10,11,21,1,8,25.43699999999998,20,117,79,73,108,103,28.242999999999977,0.244,0.6099999999999999,0.427,20,1,3,2,126,1,3,2,2,0,10,2.5,6,L,0.22415079365079363,0.244,0.20333333333333334,0.2135
10,11,22,1,14,27.693999999999978,20,120,94,119,90,67,27.876999999999978,10.674999999999992,0.366,4.6969999999999965,20,15,4,15,122,41,4,28,3,0,12,3,6,L,0.22849999999999998,0.26036585365853654,0.0915,0.16774999999999998
10,12,23,1,11,19.641999999999985,20,105,62,6,97,94,24.64399999999998,10.552999999999992,0.9759999999999995,2.9889999999999977,20,16,5,9,120,42,6,10,4,0,15,3.75,6,L,0.20536666666666664,0.25126190476190474,0.16266666666666665,0.29889999999999994
10,12,24,1,2,19.519999999999985,16,99,50,24,14,16,22.508999999999983,31.475999999999974,3.720999999999997,23.240999999999982,20,19,13,17,114,139,20,93,4,0.5,40,5.5,6,L,0.19744736842105262,0.2264460431654676,0.18605,0.24990322580645158
10,13,25,1,15,39.64999999999997,19,188,15,18,63,111,39.71099999999997,4.574999999999997,1.9519999999999986,7.258999999999994,20,12,8,15,189,20,9,35,6,0,18,4.5,6,L,0.2101111111111111,0.22874999999999995,0.21688888888888888,0.20739999999999997
10,13,26,1,3,18.360999999999986,20,81,32,34,30,26,18.726999999999986,0.7319999999999998,0.244,3.903999999999997,20,4,2,12,84,4,2,18,5,1,60,5,6,L,0.22294047619047616,0.183,0.122,0.21688888888888888
10,14,27,1,8,51.48399999999996,18,231,100,2,12,71,56.241999999999955,2.3179999999999983,0.427,0.122,20,10,3,1,252,12,3,1,2,0,18,4.5,6,L,0.22318253968253965,0.19316666666666665,0.14233333333333334,0.122
10,14,28,1,2,27.266999999999978,16,125,57,88,93,111,31.231999999999974,4.635999999999997,3.3549999999999973,2.0129999999999986,20,11,9,7,139,15,12,10,4,0,12,3,6,L,0.22469064748201437,0.3090666666666666,0.2795833333333333,0.2013
10,15,29,1,12,38.42999999999997,17,171,42,37,53,46,39.64999999999997,2.3179999999999983,0.5489999999999999,0.7929999999999997,20,10,1,5,182,12,1,6,5,0.5,34,4.75,6,L,0.21785714285714286,0.19316666666666665,0.5489999999999999,0.13216666666666665
10,15,30,1,3,15.920999999999987,20,80,31,29,30,85,16.835999999999988,0.061,3.3549999999999973,5.550999999999996,20,1,10,15,83,1,15,28,5,0.5,33,4.5,6,L,0.20284337349397588,0.061,0.22366666666666665,0.19824999999999998
11,1,1,0,1,21.532999999999983,18,92,2,105,81,69,43.24899999999997,0.122,4.269999999999997,0.6709999999999998,20,1,15,2,200,1,19,2,3,0,15,3.75,6,L,0.21624499999999997,0.122,0.22473684210526312,0.3354999999999999
11,1,2,0,2,50.20299999999996,12,188,51,118,53,50,53.00899999999996,0.366,1.0369999999999995,1.7689999999999988,20,2,6,6,197,2,6,8,4,0.5,26,3.5,6,L,0.26908121827411163,0.183,0.17283333333333334,0.221125
11,2,3,0,2,18.848999999999986,16,81,60,59,53,58,19.031999999999986,1.463999999999999,3.659999999999997,0.183,18,5,9,2,83,5,14,2,4,1,48,4,6,L,0.2293012048192771,0.29279999999999995,0.2614285714285714,0.0915
11,2,4,0,7,22.508999999999983,18,118,19,18,24,20,23.118999999999982,0.6099999999999999,0.183,7.380999999999994,20,5,1,14,122,5,1,28,6,1,72,6,6,L,0.1895,0.122,0.183,0.2636071428571428
11,3,5,0,2,35.379999999999974,17,139,49,107,18,21,41.35799999999997,25.92499999999998,0.427,7.807999999999994,20,19,3,17,172,106,3,41,4,0,18,4.5,6,L,0.240453488372093,0.24457547169811317,0.14233333333333334,0.19043902439024388
11,3,6,0,5,19.336999999999986,19,92,74,119,118,81,35.623999999999974,4.025999999999997,1.2199999999999993,2.561999999999998,20,13,7,9,154,16,8,12,5,0,10,2.5,6,L,0.2313246753246753,0.251625,0.1525,0.2135
11,4,7,0,7,18.848999999999986,19,87,16,23,24,68,19.641999999999985,0.244,0.366,22.386999999999983,20,2,3,16,89,2,3,110,6,0.5,40,5.5,6,L,0.22069662921348313,0.122,0.122,0.20351818181818182
11,4,8,0,3,29.584999999999976,18,132,34,27,33,30,32.20799999999998,0.061,0.9149999999999996,0.305,20,1,4,4,139,1,4,4,5,1,60,5,6,L,0.2317122302158273,0.061,0.22875,0.07625
11,5,9,0,5,14.700999999999988,19,79,43,47,48,3,14.822999999999988,2.8669999999999978,6.404999999999995,14.456999999999988,20,11,15,16,81,14,31,58,5,0.5,36,5.25,6,L,0.183,0.2047857142857143,0.20661290322580644,0.24925862068965515
11,5,10,0,8,18.543999999999986,17,81,111,117,114,115,23.179999999999982,0.7929999999999997,1.2199999999999993,0.9149999999999996,20,3,5,4,103,3,5,4,2,1,24,2,6,L,0.22504854368932037,0.26433333333333325,0.244,0.22875
11,6,11,1,8,19.092999999999986,18,84,103,102,107,105,21.105999999999984,2.2569999999999983,5.367999999999996,2.0129999999999986,20,6,13,4,95,7,21,5,2,1,24,2,6,L,0.22216842105263154,0.3224285714285713,0.2556190476190476,0.40259999999999996
11,6,12,1,3,10.491999999999992,18,57,4,6,113,89,64.11099999999995,2.9279999999999977,0.061,0.061,20,9,1,1,295,12,1,1,5,0,17,4.25,6,L,0.21732542372881353,0.244,0.061,0.061
11,7,13,1,12,30.682999999999975,18,148,67,94,91,15,35.684999999999974,4.513999999999997,1.524999999999999,6.8319999999999945,20,11,10,14,165,14,10,27,5,0,16,4,6,L,0.21627272727272726,0.32242857142857134,0.1525,0.253037037037037
11,7,14,1,7,15.981999999999987,17,77,1,6,5,114,16.10399999999999,0.5489999999999999,5.977999999999995,1.7079999999999989,18,3,14,7,78,3,24,7,6,0.5,38,5,6,L,0.20646153846153845,0.183,0.2490833333333333,0.24399999999999997
11,8,15,1,12,20.434999999999985,19,103,41,37,15,38,21.898999999999983,1.524999999999999,1.585999999999999,3.659999999999997,20,8,5,11,110,9,6,19,5,0.5,36,5.25,6,L,0.19908181818181817,0.16944444444444445,0.2643333333333333,0.1926315789473684
11,8,16,1,2,57.70599999999995,16,246,58,29,56,54,57.82799999999995,1.7689999999999988,1.1589999999999994,0.244,18,4,5,1,248,4,5,1,4,0.5,29,4.25,6,L,0.2331774193548387,0.4422499999999999,0.2318,0.244
11,9,17,1,12,36.59999999999997,16,149,3,43,38,56,45.200999999999965,0.244,1.8299999999999987,16.22599999999999,20,2,9,17,178,2,10,77,5,0,20,5,6,L,0.253938202247191,0.122,0.183,0.2107272727272727
11,9,18,1,13,44.834999999999965,17,198,16,114,26,79,46.298999999999964,1.8909999999999987,2.8669999999999978,1.524999999999999,20,4,10,4,202,5,14,5,2,0,16,4,6,L,0.22920297029702968,0.3782,0.20478571428571427,0.305
11,10,19,1,7,13.11499999999999,18,50,11,6,8,67,13.17599999999999,7.563999999999994,0.122,1.2809999999999993,19,14,1,4,51,31,1,4,6,0.5,40,5.5,6,L,0.25835294117647056,0.24399999999999997,0.122,0.32025
11,10,20,1,15,20.251999999999985,19,95,18,13,21,19,23.60699999999998,10.003999999999992,4.391999999999997,2.561999999999998,20,14,14,6,105,32,19,11,6,1,72,6,6,L,0.2248285714285714,0.31262499999999993,0.2311578947368421,0.2329090909090909
11,11,21,1,8,37.69799999999997,19,159,104,105,20,75,39.34499999999997,4.147999999999997,1.9519999999999986,9.820999999999993,20,10,8,17,169,18,9,44,2,0,13,3.25,6,L,0.2328106508875739,0.23044444444444442,0.21688888888888888,0.22320454545454543
11,11,22,1,12,22.447999999999983,20,108,5,119,55,113,65.20899999999995,0.061,3.720999999999997,0.061,20,1,9,1,264,1,9,1,5,0,14,3.5,6,L,0.24700378787878785,0.061,0.41344444444444434,0.061
11,12,23,1,15,19.885999999999985,19,98,17,18,19,26,19.946999999999985,3.0499999999999976,5.123999999999996,1.646999999999999,20,7,14,7,99,7,24,8,6,0.5,41,5.75,6,L,0.2014848484848485,0.4357142857142856,0.2135,0.205875
11,12,24,1,12,21.654999999999983,19,89,44,45,42,39,22.386999999999983,0.6709999999999998,1.4029999999999991,3.0499999999999976,20,3,6,11,93,4,8,13,5,1,60,5,6,L,0.24072043010752686,0.16775,0.175375,0.23461538461538456
11,13,25,1,14,25.92499999999998,20,118,44,90,14,22,71.12599999999995,0.488,1.7689999999999988,0.488,20,4,8,3,298,4,8,3,3,0,20,5,6,L,0.23867785234899325,0.122,0.221125,0.16266666666666665
11,13,26,1,1,28.730999999999977,20,128,82,30,83,73,30.804999999999975,0.8539999999999996,1.1589999999999994,0.488,20,2,6,4,136,2,7,4,3,0.5,23,3.5,6,L,0.22650735294117644,0.4269999999999998,0.16557142857142856,0.122
11,14,27,1,2,37.39299999999997,19,170,57,49,58,60,39.83299999999997,0.183,0.488,0.305,20,1,1,1,181,1,1,1,4,1,48,4,6,L,0.22007182320441987,0.183,0.488,0.305
11,14,28,1,11,13.663999999999989,17,62,64,72,69,62,16.774999999999988,0.7319999999999998,0.305,1.646999999999999,20,2,1,7,72,2,1,7,4,1,48,4,6,L,0.2329861111111111,0.3659999999999999,0.305,0.23528571428571426
11,15,29,1,15,22.874999999999982,17,119,21,14,16,118,24.70499999999998,2.0739999999999985,0.7319999999999998,1.9519999999999986,20,8,2,6,127,9,2,12,6,0.5,38,5,6,L,0.1945275590551181,0.23044444444444445,0.3659999999999999,0.16266666666666665
11,15,30,1,2,35.501999999999974,19,142,56,49,29,11,35.562999999999974,5.611999999999996,4.635999999999997,1.646999999999999,20,14,10,6,143,26,17,6,4,0,19,4.75,6,L,0.24869230769230766,0.21584615384615383,0.27270588235294113,0.27449999999999997
12,1,1,0,3,19.824999999999985,19,88,15,77,26,66,44.834999999999965,0.9149999999999996,0.061,0.9759999999999995,20,5,1,5,211,6,1,6,5,0,18,4.5,6,L,0.21248815165876778,0.1525,0.061,0.16266666666666665
12,1,2,0,10,20.434999999999985,19,104,89,92,96,87,22.935999999999982,2.744999999999998,4.147999999999997,1.9519999999999986,20,7,15,7,115,11,18,7,3,1,36,3,6,L,0.19944347826086956,0.24954545454545451,0.23044444444444442,0.2788571428571428
12,2,3,0,2,24.09499999999998,15,113,56,57,59,49,28.608999999999977,0.7929999999999997,0.061,0.7929999999999997,20,5,1,4,127,5,1,5,4,1,48,4,6,L,0.22526771653543304,0.1586,0.061,0.1586
12,2,4,0,7,22.142999999999983,14,101,24,17,16,65,24.76599999999998,1.2809999999999993,0.7929999999999997,4.025999999999997,20,4,2,11,113,6,3,19,6,0.5,40,5.5,6,L,0.21916814159292033,0.2135,0.2643333333333333,0.21189473684210525
12,3,5,0,1,32.81799999999998,19,141,77,78,82,83,32.939999999999976,1.7079999999999989,1.8299999999999987,2.9889999999999977,20,4,7,11,143,5,9,16,3,1,36,3,6,L,0.23034965034965033,0.34159999999999985,0.20333333333333334,0.1868125
12,3,6,0,10,22.813999999999982,14,106,87,85,95,92,22.874999999999982,1.0369999999999995,3.903999999999997,0.488,15,4,11,2,107,4,13,2,3,1,36,3,6,L,0.21378504672897194,0.25925,0.3003076923076923,0.244
12,4,7,0,2,14.822999999999988,18,80,59,52,38,13,17.994999999999987,0.6709999999999998,21.288999999999984,6.8929999999999945,20,3,18,15,97,3,82,28,4,0,19,4.75,6,L,0.18551546391752577,0.22366666666666665,0.25962195121951215,0.24617857142857139
12,4,8,0,6,25.80299999999998,17,106,11,1,61,2,26.71799999999998,4.635999999999997,9.637999999999993,3.476999999999997,20,13,16,11,110,17,42,16,6,0.5,40,5.5,6,L,0.24289090909090907,0.2727058823529412,0.22947619047619044,0.2173125
12,5,9,0,6,10.491999999999992,18,49,3,7,8,12,15.676999999999989,3.659999999999997,1.8909999999999987,1.7689999999999988,20,13,5,5,75,15,6,6,6,1,72,6,6,L,0.20902666666666667,0.24399999999999994,0.3151666666666666,0.2948333333333333
12,5,10,0,7,64.416,15,269,23,89,91,16,69.845,2.561999999999998,3.0499999999999976,3.2329999999999974,20,7,9,8,294,8,11,13,6,0,18,4.5,6,L,0.23756802721088432,0.3202499999999999,0.27727272727272717,0.24869230769230768
12,6,11,1,3,27.754999999999978,20,126,30,36,29,14,28.181999999999977,5.123999999999996,0.061,5.367999999999996,20,12,1,14,127,22,1,23,5,0.5,36,5.25,6,L,0.2219055118110236,0.2329090909090909,0.061,0.2333913043478261
12,6,12,1,2,20.678999999999984,19,81,52,58,56,42,20.983999999999984,0.061,1.463999999999999,1.4029999999999991,20,1,5,4,82,1,6,5,4,0.5,29,4.25,6,L,0.25590243902439025,0.061,0.244,0.28059999999999985
12,7,13,1,1,10.430999999999992,19,46,18,78,73,19,28.79199999999998,0.061,0.061,3.4159999999999973,20,1,1,10,121,1,1,12,3,0,18,4.5,6,L,0.23795041322314048,0.061,0.061,0.2846666666666666
12,7,14,1,14,47.88499999999996,17,197,26,95,94,72,59.29199999999995,1.4029999999999991,1.1589999999999994,0.5489999999999999,20,6,8,3,249,7,9,3,3,0,15,3.75,6,L,0.23812048192771082,0.20042857142857143,0.12877777777777777,0.183
12,8,15,1,8,20.495999999999984,20,98,107,102,105,30,21.227999999999984,0.8539999999999996,2.683999999999998,3.598999999999997,20,5,10,9,101,5,12,16,2,0.5,17,2.75,6,L,0.21017821782178217,0.1708,0.22366666666666665,0.22493749999999998
12,8,16,1,7,17.933999999999987,15,87,5,8,9,117,17.994999999999987,8.295999999999994,4.574999999999997,1.8299999999999987,16,16,14,7,88,37,21,7,6,0.5,38,5,6,L,0.20448863636363634,0.2242162162162162,0.21785714285714283,0.2614285714285714
12,9,17,1,11,19.275999999999986,20,75,70,64,14,16,20.129999999999985,2.9279999999999977,0.122,9.332999999999993,20,7,2,13,80,7,2,41,4,0,20,5,6,L,0.251625,0.41828571428571415,0.061,0.2276341463414634
12,9,18,1,13,41.96799999999997,13,188,117,116,112,76,43.00499999999997,3.781999999999997,3.659999999999997,2.8669999999999978,19,13,9,11,195,21,12,15,2,0.5,15,2.25,6,L,0.22053846153846152,0.18009523809523809,0.30499999999999994,0.19113333333333332
12,10,19,1,13,72.59000000000094,15,307,8,94,118,110,82.59400000000093,1.8299999999999987,0.183,5.550999999999996,20,8,1,11,341,11,1,15,2,0,13,3.25,6,L,0.24221114369501462,0.16636363636363635,0.183,0.37006666666666654
12,10,20,1,15,46.90899999999996,14,191,19,66,74,16,50.69099999999996,2.2569999999999983,6.587999999999995,2.0739999999999985,20,9,13,8,209,10,22,8,6,0,19,4.75,6,L,0.24254066985645928,0.22569999999999998,0.2994545454545454,0.25925
12,11,21,1,14,11.528999999999991,20,51,3,2,95,119,75.51799999999994,0.7929999999999997,5.916999999999995,0.6709999999999998,20,4,13,4,309,4,23,4,3,0,17,4.25,6,L,0.24439482200647247,0.19824999999999998,0.2572608695652173,0.16775
12,11,22,1,8,37.81999999999997,19,167,103,105,21,67,40.38199999999997,1.2199999999999993,3.1719999999999975,2.744999999999998,20,5,7,5,175,6,8,6,2,0,14,3.5,6,L,0.2307542857142857,0.20333333333333334,0.3964999999999999,0.4574999999999999
12,12,23,1,13,23.97299999999998,20,102,112,111,116,12,25.98599999999998,0.305,5.916999999999995,2.1959999999999984,20,3,15,9,112,4,32,13,2,0.5,18,3,6,L,0.23201785714285714,0.07625,0.18490625,0.16892307692307693
12,12,24,1,1,18.238999999999987,20,79,78,73,84,50,18.970999999999986,4.818999999999996,0.061,7.9299999999999935,20,12,1,12,83,19,1,29,3,0.5,22,3.25,6,L,0.22856626506024094,0.2536315789473684,0.061,0.27344827586206893
12,13,25,1,7,82.71600000000211,15,377,12,6,50,8,85.70500000000212,0.305,2.2569999999999983,5.001999999999996,20,1,8,13,387,1,11,26,6,0.5,40,5.5,6,L,0.22145994832041344,0.305,0.2051818181818182,0.19238461538461538
12,13,26,1,13,66.06300000000019,11,293,110,109,63,61,68.80800000000019,0.244,4.6969999999999965,0.488,20,1,15,2,304,2,29,2,2,0,12,3,6,L,0.22634210526315787,0.122,0.1619655172413793,0.244
12,14,27,1,8,16.469999999999988,20,78,103,102,97,51,16.774999999999988,0.7929999999999997,0.122,18.787999999999986,20,6,2,16,80,6,2,80,2,0.5,16,2.5,6,L,0.20968749999999997,0.13216666666666665,0.061,0.23484999999999998
12,14,28,1,3,21.349999999999984,20,90,35,64,71,16,30.49999999999998,3.9649999999999967,1.7689999999999988,1.524999999999999,20,12,6,3,124,19,6,4,5,0,19,4.75,6,L,0.24596774193548385,0.20868421052631578,0.2948333333333332,0.3812499999999999
12,15,29,1,8,49.10499999999996,16,214,13,101,63,30,53.19199999999996,1.585999999999999,3.2329999999999974,4.269999999999997,20,6,9,7,224,6,13,8,2,0,17,4.25,6,L,0.2374642857142857,0.2643333333333333,0.24869230769230763,0.5337499999999997
12,15,30,1,7,18.848999999999986,15,101,4,12,118,11,18.909999999999986,9.820999999999993,0.7319999999999998,0.183,16,18,2,1,102,41,2,1,6,0.5,38,5,6,L,0.1853921568627451,0.23953658536585362,0.3659999999999999,0.183
13,1,1,0,4,25.07099999999998,17,109,104,101,79,103,25.25399999999998,0.122,12.93199999999999,4.513999999999997,20,2,18,15,112,2,64,18,2,0.5,15,2.25,6,L,0.22548214285714283,0.061,0.20206249999999998,0.25077777777777777
13,1,2,0,8,20.556999999999984,18,95,111,113,112,117,25.61999999999998,0.122,0.9759999999999995,0.5489999999999999,20,1,2,3,120,1,2,3,2,1,24,2,6,L,0.2135,0.122,0.48799999999999993,0.183
13,2,3,0,4,23.78999999999998,19,101,107,98,99,3,25.31499999999998,3.2329999999999974,2.2569999999999983,4.208999999999997,20,11,8,6,109,13,10,11,2,0.5,18,3,6,L,0.23224770642201834,0.24869230769230766,0.22569999999999998,0.38263636363636355
13,2,4,0,8,19.763999999999985,20,95,114,113,118,27,19.946999999999985,7.319999999999994,3.476999999999997,1.8299999999999987,20,14,9,7,97,26,12,10,2,0.5,17,2.75,6,L,0.20563917525773195,0.2815384615384615,0.28974999999999995,0.183
13,3,5,0,7,11.162999999999991,14,57,16,22,15,17,11.77299999999999,1.9519999999999986,0.9149999999999996,0.183,16,6,4,2,59,8,4,2,6,1,72,6,6,L,0.19954237288135593,0.24399999999999997,0.22874999999999998,0.0915
13,3,6,0,9,23.301999999999982,19,110,62,66,71,65,24.27799999999998,3.1719999999999975,0.6709999999999998,2.3789999999999982,20,10,3,11,115,15,4,15,4,1,48,4,6,L,0.21111304347826085,0.21146666666666666,0.16775,0.1586
13,4,7,0,1,19.092999999999986,19,100,76,37,74,104,28.79199999999998,17.079999999999988,0.183,4.574999999999997,20,18,2,12,137,69,3,16,3,0,13,3.25,6,L,0.21016058394160583,0.24753623188405793,0.061,0.28593749999999996
13,4,8,0,9,16.957999999999988,14,78,62,15,20,94,18.360999999999986,13.724999999999989,8.234999999999994,0.5489999999999999,16,17,16,2,80,62,47,2,4,0,19,4.75,6,L,0.22951249999999995,0.22137096774193546,0.1752127659574468,0.27449999999999997
13,5,9,0,8,81.98400000000203,16,343,115,114,70,30,82.04500000000203,0.8539999999999996,4.330999999999997,5.7949999999999955,17,4,12,11,344,5,22,20,2,0,13,3.25,6,L,0.23850290697674417,0.1708,0.19686363636363635,0.28974999999999995
13,5,10,0,4,29.767999999999976,18,147,103,105,37,43,34.586999999999975,2.805999999999998,10.979999999999992,4.879999999999996,20,9,18,15,161,10,51,23,2,0,14,3.5,6,L,0.21482608695652172,0.28059999999999996,0.2152941176470588,0.21217391304347827
13,6,11,1,2,33.427999999999976,19,142,51,41,50,100,34.464999999999975,1.9519999999999986,3.0499999999999976,4.879999999999996,20,4,11,12,149,4,15,22,4,0,15,3.75,6,L,0.23130872483221476,0.4879999999999999,0.2033333333333333,0.2218181818181818
13,6,12,1,15,30.987999999999975,20,126,22,66,89,21,31.109999999999975,6.465999999999995,9.027999999999993,0.061,20,17,18,1,128,36,44,1,6,0,19,4.75,6,L,0.24304687499999997,0.1796111111111111,0.20518181818181816,0.061
13,7,13,1,8,14.151999999999989,20,67,32,106,13,97,18.543999999999986,2.9889999999999977,6.282999999999995,0.122,20,11,13,1,82,16,17,1,2,0,15,3.75,6,L,0.2261463414634146,0.1868125,0.36958823529411755,0.122
13,7,14,1,2,33.854999999999976,20,143,55,58,39,38,36.11199999999997,3.3549999999999973,3.537999999999997,3.476999999999997,20,11,13,10,155,17,24,14,4,0,18,4.5,6,L,0.2329806451612903,0.19735294117647056,0.14741666666666667,0.24835714285714283
13,8,15,1,7,13.05399999999999,18,61,1,4,5,6,28.242999999999977,0.427,1.3419999999999992,0.122,20,2,6,1,134,2,6,1,6,1,72,6,6,L,0.2107686567164179,0.2135,0.22366666666666665,0.122
13,8,16,1,14,23.48499999999998,20,99,67,86,87,97,33.061999999999976,2.8669999999999978,0.061,5.428999999999996,20,9,1,16,140,11,1,27,3,0,12,3,6,L,0.23615714285714282,0.2606363636363636,0.061,0.20107407407407404
13,9,17,1,7,15.127999999999988,19,79,3,5,11,72,17.140999999999988,0.7929999999999997,5.672999999999996,1.8299999999999987,20,5,14,4,90,5,24,6,6,0.5,40,5.5,6,L,0.19045555555555554,0.1586,0.236375,0.30499999999999994
13,9,18,1,15,29.096999999999976,17,124,17,16,22,19,29.157999999999976,9.027999999999993,0.305,13.29799999999999,18,16,2,15,125,30,2,53,6,1,72,6,6,L,0.23326399999999997,0.3009333333333333,0.1525,0.25090566037735845
13,10,19,1,11,12.07799999999999,16,53,61,43,21,81,18.116999999999987,15.493999999999987,2.683999999999998,5.428999999999996,20,19,10,13,75,75,14,24,4,0,18,4.5,6,L,0.24156,0.20658666666666664,0.1917142857142857,0.22620833333333332
13,10,20,1,2,29.828999999999976,20,141,59,52,50,4,29.889999999999976,0.9759999999999995,1.9519999999999986,2.0739999999999985,20,3,5,5,142,4,5,5,4,0.5,30,4.5,6,L,0.21049295774647886,0.244,0.3903999999999999,0.4147999999999999
13,11,21,1,3,21.349999999999984,17,107,35,27,36,49,24.21699999999998,0.061,2.439999999999998,7.014999999999994,20,1,11,14,120,1,14,33,5,0.5,34,4.75,6,L,0.2018083333333333,0.061,0.17428571428571427,0.21257575757575756
13,11,22,1,1,17.933999999999987,20,83,80,77,105,78,17.994999999999987,11.101999999999991,1.9519999999999986,2.3179999999999983,20,15,5,8,84,44,7,12,3,0.5,20,2.75,6,L,0.21422619047619046,0.2523181818181818,0.2788571428571428,0.19316666666666665
13,12,23,1,7,12.99299999999999,16,47,4,5,2,86,13.23699999999999,0.061,10.674999999999992,2.500999999999998,18,1,16,6,49,1,53,6,6,0.5,39,5.25,6,L,0.27014285714285713,0.061,0.20141509433962262,0.4168333333333332
13,12,24,1,15,21.105999999999984,20,100,13,21,24,15,21.166999999999984,0.061,0.5489999999999999,8.417999999999994,20,1,2,15,101,1,2,31,6,1,72,6,6,L,0.20957425742574257,0.061,0.27449999999999997,0.27154838709677415
13,13,25,1,11,47.21399999999996,17,206,67,65,33,8,47.76299999999996,1.2199999999999993,5.184999999999996,1.524999999999999,20,5,15,6,210,6,25,7,4,0,19,4.75,6,L,0.2274428571428571,0.20333333333333334,0.20739999999999997,0.21785714285714286
13,13,26,1,14,41.47999999999997,17,178,90,88,23,91,44.651999999999965,0.305,0.6709999999999998,6.099999999999995,20,2,1,15,193,2,1,24,3,0.5,24,3.75,6,L,0.23135751295336784,0.1525,0.6709999999999998,0.25416666666666665
13,14,27,1,12,24.64399999999998,16,106,46,72,95,90,27.266999999999978,7.258999999999994,4.574999999999997,0.305,20,17,11,1,120,36,19,1,5,0,15,3.75,6,L,0.22722499999999998,0.20163888888888887,0.2407894736842105,0.305
13,14,28,1,2,32.39099999999998,20,158,55,56,60,54,32.63499999999998,0.366,0.183,0.122,20,2,2,2,162,2,2,2,4,1,48,4,6,L,0.2014506172839506,0.183,0.0915,0.061
13,15,29,1,15,9.393999999999993,14,50,13,18,22,24,11.77299999999999,2.0129999999999986,1.0369999999999995,1.2809999999999993,20,8,4,5,65,10,6,5,6,1,72,6,6,L,0.18112307692307691,0.20129999999999998,0.17283333333333334,0.25619999999999993
13,15,30,1,7,21.654999999999983,17,117,1,6,4,38,21.715999999999983,2.9279999999999977,5.977999999999995,4.208999999999997,18,7,13,12,118,14,24,16,6,0.5,41,5.75,6,L,0.18403389830508474,0.20914285714285713,0.24908333333333332,0.2630625
13,16,31,1,13,21.715999999999983,17,102,112,113,96,109,28.547999999999977,1.4029999999999991,6.038999999999995,1.585999999999999,20,5,13,6,132,6,19,6,2,0.5,15,2.25,6,L,0.21627272727272726,0.23383333333333334,0.3178421052631578,0.2643333333333333
13,16,32,1,8,29.950999999999976,16,143,2,6,8,98,53.25299999999996,3.903999999999997,21.349999999999984,0.183,20,10,16,1,236,13,92,1,2,0.5,38,5,6,L,0.22564830508474573,0.3003076923076923,0.23206521739130434,0.183
14,1,1,0,4,33.915999999999976,20,141,21,48,55,56,35.440999999999974,2.3179999999999983,3.0499999999999976,4.147999999999997,20,8,9,11,144,9,10,16,2,0,19,4.75,6,L,0.24611805555555552,0.2575555555555555,0.3049999999999999,0.2592499999999999
14,1,2,0,6,16.28699999999999,19,88,1,5,7,8,16.34799999999999,1.0979999999999994,2.500999999999998,0.366,20,3,8,2,89,3,11,2,6,1,72,6,6,L,0.18368539325842695,0.366,0.22736363636363632,0.183
14,2,3,0,7,25.68099999999998,17,122,20,19,17,24,26.83999999999998,5.855999999999995,0.305,6.160999999999995,20,12,2,16,128,20,2,31,6,1,72,6,6,L,0.20968749999999997,0.29279999999999995,0.1525,0.19874193548387095
14,2,4,0,1,36.41699999999997,19,147,113,64,3,114,46.298999999999964,18.299999999999986,6.526999999999995,1.9519999999999986,20,18,16,6,188,74,31,8,3,0,14,3.5,6,L,0.24627127659574466,0.24729729729729727,0.21054838709677418,0.244
14,3,5,0,3,19.397999999999985,16,93,28,32,27,15,20.617999999999984,0.9759999999999995,0.244,18.787999999999986,20,5,2,16,98,6,2,76,5,0.5,36,5.25,6,L,0.2103877551020408,0.16266666666666665,0.122,0.24721052631578944
14,3,6,0,6,6.160999999999995,15,29,3,5,7,101,9.698999999999993,1.9519999999999986,1.0979999999999994,5.306999999999996,20,7,7,13,39,7,7,25,6,0.5,38,5,6,L,0.24869230769230768,0.2788571428571428,0.15685714285714286,0.21227999999999997
14,4,7,0,7,12.19999999999999,20,51,110,19,21,13,19.336999999999986,3.2329999999999974,3.659999999999997,0.061,20,8,10,1,88,11,12,1,6,0.5,38,5,6,L,0.21973863636363636,0.2939090909090909,0.30499999999999994,0.061
14,4,8,0,9,14.212999999999989,19,74,72,63,64,70,14.456999999999988,5.062999999999996,1.7079999999999989,2.9279999999999977,20,16,8,10,75,31,9,12,4,1,48,4,6,L,0.19276,0.16332258064516128,0.18977777777777777,0.244
14,5,9,0,4,30.987999999999975,17,121,15,22,90,97,63.195999999999955,2.9279999999999977,0.061,1.585999999999999,20,12,1,8,239,13,1,9,2,0,17,4.25,6,L,0.26441841004184097,0.2252307692307692,0.061,0.17622222222222222
14,5,10,0,6,15.859999999999987,19,81,7,2,5,11,16.22599999999999,4.635999999999997,1.1589999999999994,1.9519999999999986,20,15,4,8,84,27,4,10,6,1,72,6,6,L,0.19316666666666665,0.1717037037037037,0.2897499999999999,0.19519999999999998
14,6,11,1,8,21.227999999999984,20,102,99,100,24,104,21.532999999999983,2.744999999999998,5.428999999999996,0.183,20,10,14,2,104,16,25,2,2,0.5,18,3,6,L,0.20704807692307692,0.1715625,0.21715999999999996,0.0915
14,6,12,1,7,8.051999999999994,14,49,7,2,64,11,8.112999999999994,6.038999999999995,0.122,0.488,15,17,1,4,50,33,1,4,6,0.5,40,5.5,6,L,0.16226,0.183,0.122,0.122
14,7,13,1,1,31.231999999999974,17,131,79,45,69,66,31.475999999999974,8.539999999999994,3.598999999999997,0.244,18,15,11,3,132,37,15,4,3,0,16,4,6,L,0.23845454545454542,0.23081081081081078,0.2399333333333333,0.061
14,7,14,1,2,22.813999999999982,19,106,51,58,60,103,22.874999999999982,1.8909999999999987,5.611999999999996,1.524999999999999,20,9,14,8,107,13,28,8,4,0.5,26,3.5,6,L,0.21378504672897194,0.14546153846153845,0.20042857142857143,0.190625
14,8,15,1,13,15.127999999999988,12,68,9,119,93,92,35.501999999999974,0.061,3.537999999999997,7.014999999999994,20,1,10,16,154,1,14,33,2,0,14,3.5,6,L,0.2305324675324675,0.061,0.2527142857142857,0.21257575757575756
14,8,16,1,15,13.724999999999989,18,76,24,20,106,21,14.273999999999988,6.526999999999995,3.2939999999999974,0.9759999999999995,20,17,9,3,81,30,10,4,6,0.5,38,5,6,L,0.1762222222222222,0.21756666666666666,0.32939999999999997,0.24399999999999997
14,9,17,1,15,15.676999999999987,20,69,19,13,22,24,17.811999999999987,1.2809999999999993,0.5489999999999999,2.0129999999999986,20,5,4,8,76,5,4,9,6,1,72,6,6,L,0.23436842105263156,0.2562,0.13724999999999998,0.22366666666666665
14,9,18,1,7,13.05399999999999,15,69,11,7,6,10,13.48099999999999,1.646999999999999,14.090999999999989,1.8909999999999987,17,6,18,10,71,8,61,12,6,1,72,6,6,L,0.1898732394366197,0.205875,0.23099999999999998,0.15758333333333333
14,10,19,1,2,28.730999999999977,17,120,51,54,58,43,29.035999999999976,3.598999999999997,1.3419999999999992,1.2199999999999993,20,9,7,7,123,14,8,8,4,0.5,29,4.25,6,L,0.23606504065040648,0.25707142857142856,0.16775,0.1525
14,10,20,1,15,23.97299999999998,18,109,16,18,81,102,24.09499999999998,0.427,12.44399999999999,1.0979999999999994,20,3,14,5,111,3,38,5,6,0,17,4.25,6,L,0.21707207207207205,0.14233333333333334,0.32747368421052625,0.21959999999999996
14,11,21,1,2,15.981999999999987,18,79,3,11,46,4,58.31599999999995,0.122,1.2199999999999993,1.2809999999999993,20,1,8,5,255,1,9,5,4,0.5,41,5.75,6,L,0.22869019607843133,0.122,0.13555555555555554,0.25619999999999993
14,11,22,1,15,59.16999999999995,17,251,19,17,13,105,59.23099999999995,5.7339999999999955,6.343999999999995,0.7319999999999998,18,13,17,4,252,25,30,4,6,0.5,38,5,6,L,0.23504365079365075,0.22935999999999998,0.21146666666666666,0.183
14,12,23,1,2,11.95599999999999,20,54,23,56,59,49,24.03399999999998,0.7929999999999997,0.061,2.1959999999999984,20,2,1,11,98,2,1,16,4,0.5,30,4.5,6,L,0.24524489795918364,0.39649999999999985,0.061,0.13724999999999998
14,12,24,1,11,33.366999999999976,20,141,63,69,67,62,37.08799999999997,1.2809999999999993,0.7319999999999998,3.598999999999997,20,5,3,11,157,6,3,16,4,1,48,4,6,L,0.23622929936305728,0.2135,0.244,0.22493749999999998
14,13,25,1,2,17.445999999999987,19,86,59,28,58,102,17.506999999999987,4.635999999999997,7.502999999999994,1.1589999999999994,20,11,15,6,87,15,29,7,4,0,15,3.75,6,L,0.20122988505747125,0.3090666666666666,0.2587241379310345,0.16557142857142856
14,13,26,1,15,45.871999999999964,18,211,19,20,92,85,45.932999999999964,9.088999999999993,2.1349999999999985,4.635999999999997,19,14,7,11,212,38,8,20,6,0,18,4.5,6,L,0.2166650943396226,0.23918421052631578,0.266875,0.23179999999999995
14,14,27,1,3,19.031999999999986,19,106,31,27,28,92,20.068999999999985,0.427,1.3419999999999992,1.0369999999999995,20,2,6,1,113,2,7,1,5,0.5,33,4.5,6,L,0.17760176991150442,0.2135,0.1917142857142857,1.0369999999999995
14,14,28,1,12,20.739999999999984,20,102,38,4,2,75,24.82699999999998,11.467999999999991,9.759999999999993,3.1719999999999975,20,17,16,13,120,45,40,15,5,0,20,5,6,L,0.20689166666666667,0.25484444444444443,0.244,0.21146666666666664
14,15,29,1,2,26.22999999999998,13,118,59,60,77,50,28.547999999999977,4.452999999999997,3.537999999999997,1.0979999999999994,20,14,9,6,132,21,9,6,4,0.5,27,3.75,6,L,0.21627272727272726,0.212047619047619,0.39311111111111097,0.183
14,15,30,1,12,22.935999999999982,19,114,37,46,45,48,24.39999999999998,1.0369999999999995,2.683999999999998,9.149999999999993,20,5,6,17,123,5,7,40,5,1,60,5,6,L,0.1983739837398374,0.20739999999999995,0.38342857142857134,0.22874999999999998
14,16,31,1,13,25.43699999999998,18,97,114,15,116,109,25.74199999999998,4.6969999999999965,1.646999999999999,2.683999999999998,20,12,8,8,99,17,11,10,2,0.5,18,3,6,L,0.260020202020202,0.2762941176470588,0.14972727272727274,0.26839999999999997
14,16,32,1,3,24.03399999999998,20,107,102,2,35,95,47.39699999999996,13.29799999999999,0.244,0.122,20,18,3,1,206,50,3,1,5,0,16,4,6,L,0.23008252427184464,0.26596,0.08133333333333333,0.122
15,1,1,0,5,14.334999999999988,17,74,64,102,100,72,35.867999999999974,1.3419999999999992,0.7929999999999997,1.646999999999999,20,5,6,9,174,6,7,10,5,0,12,3,6,L,0.20613793103448275,0.22366666666666662,0.11328571428571428,0.16469999999999999
15,1,2,0,3,18.787999999999986,20,111,4,26,85,50,33.244999999999976,0.122,1.2809999999999993,0.061,20,1,6,1,159,1,6,1,5,0,18,4.5,6,L,0.20908805031446545,0.122,0.21349999999999994,0.061
15,2,3,0,9,13.846999999999989,19,66,7,5,11,110,39.22299999999997,13.724999999999989,4.208999999999997,0.122,20,18,13,1,168,48,17,1,4,0.5,38,5,6,L,0.23347023809523806,0.28593749999999996,0.2475882352941176,0.122
15,2,4,0,7,11.83399999999999,16,63,18,17,21,26,13.602999999999989,5.367999999999996,2.3179999999999983,7.9299999999999935,20,16,10,17,71,27,12,33,6,0.5,41,5.75,6,L,0.19159154929577463,0.19881481481481478,0.19316666666666665,0.24030303030303027
15,3,5,0,3,18.116999999999987,20,80,25,33,29,36,18.543999999999986,4.025999999999997,0.8539999999999996,0.7319999999999998,20,11,6,4,84,22,6,4,5,1,60,5,6,L,0.22076190476190471,0.183,0.14233333333333334,0.183
15,3,6,0,7,12.13899999999999,15,52,16,110,23,89,12.99299999999999,5.489999999999996,6.953999999999994,4.269999999999997,19,10,16,13,56,21,27,23,6,0,17,4.25,6,L,0.23201785714285714,0.2614285714285714,0.2575555555555555,0.18565217391304348
15,4,7,0,9,22.935999999999982,18,111,62,61,71,19,23.118999999999982,1.0979999999999994,2.1349999999999985,11.406999999999991,20,5,6,16,113,6,6,43,4,0.5,30,4.5,6,L,0.2045929203539823,0.183,0.3558333333333333,0.2652790697674418
15,4,8,0,6,15.554999999999987,19,70,10,4,3,94,15.798999999999987,0.9759999999999995,17.140999999999988,2.805999999999998,20,6,17,8,71,7,67,9,6,0.5,39,5.25,6,L,0.22252112676056335,0.13942857142857143,0.25583582089552237,0.3117777777777777
15,5,9,0,6,24.39999999999998,15,101,87,12,4,37,34.098999999999975,4.635999999999997,0.122,0.7319999999999998,20,13,1,4,150,18,1,4,6,0,20,5,6,L,0.22732666666666665,0.25755555555555554,0.122,0.183
15,5,10,0,9,13.17599999999999,20,66,66,14,107,19,13.29799999999999,22.691999999999982,10.064999999999992,1.0369999999999995,20,18,16,4,67,97,47,4,4,0,18,4.5,6,L,0.1984776119402985,0.23393814432989687,0.21414893617021274,0.25925
15,6,11,1,8,26.90099999999998,20,113,20,19,37,102,30.011999999999976,11.101999999999991,1.7079999999999989,0.8539999999999996,20,16,10,4,122,37,11,5,2,0,19,4.75,6,L,0.24599999999999997,0.300054054054054,0.15527272727272726,0.1708
15,6,12,1,7,33.549999999999976,15,149,7,5,4,10,35.928999999999974,1.8909999999999987,0.061,0.061,20,10,1,1,162,11,1,1,6,1,72,6,6,L,0.22178395061728393,0.1719090909090909,0.061,0.061
15,7,13,1,3,20.617999999999984,20,105,27,18,13,35,20.678999999999984,8.539999999999994,4.6969999999999965,0.5489999999999999,20,15,15,2,106,36,21,3,5,0,22,5.5,6,L,0.19508490566037734,0.2372222222222222,0.22366666666666665,0.183
15,7,14,1,7,13.48099999999999,19,63,1,12,3,64,15.371999999999987,0.366,2.3789999999999982,7.8689999999999936,20,3,8,14,72,3,9,33,6,0.5,40,5.5,6,L,0.21349999999999997,0.122,0.2643333333333333,0.23845454545454545
15,8,15,1,7,12.13899999999999,20,65,7,12,11,45,12.19999999999999,4.452999999999997,1.7079999999999989,5.123999999999996,20,14,5,11,66,25,7,18,6,0.5,41,5.75,6,L,0.18484848484848485,0.17812,0.244,0.2846666666666666
15,8,16,1,15,49.89799999999996,19,237,21,18,13,28,50.44699999999996,2.439999999999998,24.33899999999998,0.7319999999999998,20,9,18,1,240,10,105,1,6,0.5,41,5.75,6,L,0.2101958333333333,0.244,0.23179999999999995,0.7319999999999998
