Subject,Round,Phase,afterbreak,Schema,Schema_RT,Schema_OB,Schema_AS,Cho_1,Cho_2,Cho_3,Cho_4,RT_1,RT_2,RT_3,RT_4,OB_1,OB_2,OB_3,OB_4,AS_1,AS_2,AS_3,AS_4,schema_payoff,AC,performance,payoff,breakR,type,dwellmean_1,dwellmean_2,dwellmean_3,dwellmean_4
1,1,1,0,6,11.284999999999991,14,49,11,5,2,98,12.62699999999999,1.646999999999999,2.9279999999999977,2.8669999999999978,20,3,7,9,57,3,10,13,6,0.5,38,5,3,L,0.22152631578947365,0.5489999999999998,0.29279999999999995,0.22053846153846152
1,1,2,0,2,19.031999999999986,19,92,59,57,53,112,20.190999999999985,2.561999999999998,0.5489999999999999,5.489999999999996,20,5,2,10,95,5,2,19,4,0.5,26,3.5,3,L,0.21253684210526314,0.5123999999999999,0.27449999999999997,0.2889473684210526
1,2,3,0,9,17.506999999999987,16,96,16,65,96,29,3453.393000002311,0.061,0.488,0.061,20,1,3,1,14069,1,3,1,4,0,18,4.5,3,L,0.2454611557324613,0.061,0.16266666666666665,0.061
1,2,4,0,5,19.092999999999986,19,78,38,3,2,4,21.471999999999984,20.190999999999985,1.8299999999999987,3.4159999999999973,20,19,9,12,92,94,12,15,5,0.5,41,5.75,3,L,0.23339130434782607,0.21479787234042552,0.1525,0.2277333333333333
1,3,5,1,12,26.47399999999998,20,120,37,42,38,22,27.205999999999978,1.646999999999999,1.585999999999999,0.8539999999999996,20,6,7,5,124,8,10,5,5,0.5,36,5.25,3,L,0.2194032258064516,0.205875,0.1586,0.1708
1,3,6,1,2,21.898999999999983,17,105,50,27,8,7,22.325999999999983,29.584999999999976,25.98599999999998,0.183,20,19,18,1,108,113,111,1,4,0,21,5.25,3,L,0.2067222222222222,0.26181415929203533,0.23410810810810811,0.183
2,1,1,0,7,9.515999999999993,15,44,14,21,17,16,9.759999999999993,2.561999999999998,1.2809999999999993,3.1109999999999975,17,8,6,13,46,10,8,18,6,1,72,6,6,L,0.21217391304347824,0.25619999999999993,0.160125,0.17283333333333334
2,1,2,0,6,25.68099999999998,14,120,3,2,58,8,26.71799999999998,5.489999999999996,7.8689999999999936,8.478999999999994,18,15,16,15,124,32,28,33,6,0.5,40,5.5,6,L,0.21546774193548388,0.1715625,0.2810357142857142,0.2569393939393939
2,2,3,0,7,19.153999999999986,17,83,20,14,21,111,19.336999999999986,3.2329999999999974,0.061,10.247999999999992,19,8,1,16,85,12,1,43,6,0.5,38,5,6,L,0.2274941176470588,0.26941666666666664,0.061,0.23832558139534882
2,2,4,0,2,37.27099999999997,15,152,56,49,3,97,37.33199999999997,3.1109999999999975,17.567999999999987,0.7319999999999998,16,8,18,4,153,12,79,4,4,0,16,4,6,L,0.24399999999999997,0.25925,0.222379746835443,0.183
2,3,5,0,7,13.54199999999999,19,71,20,15,13,16,14.456999999999988,3.4159999999999973,2.500999999999998,0.427,20,10,6,3,74,15,7,3,6,1,72,6,6,L,0.19536486486486485,0.22773333333333332,0.3572857142857142,0.14233333333333334
2,3,6,0,9,46.237999999999964,15,208,61,72,65,69,46.664999999999964,0.7319999999999998,2.0129999999999986,2.9279999999999977,18,4,6,8,211,5,6,12,4,1,48,4,6,L,0.22116113744075827,0.1464,0.3354999999999999,0.24399999999999997
2,4,7,0,7,16.957999999999988,15,80,13,15,97,20,17.018999999999988,1.4029999999999991,9.027999999999993,3.1109999999999975,16,6,16,11,81,6,42,14,6,0.5,38,5,6,L,0.21011111111111108,0.23383333333333334,0.21495238095238095,0.2222142857142857
2,4,8,0,1,23.118999999999982,17,109,51,81,82,117,41.35799999999997,4.269999999999997,7.197999999999994,7.380999999999994,20,11,17,16,186,14,28,40,3,0,12,3,6,L,0.2223548387096774,0.30499999999999994,0.25707142857142856,0.184525
2,5,9,0,3,25.00999999999998,14,97,25,35,32,65,25.43699999999998,2.9889999999999977,0.244,10.674999999999992,17,12,2,17,100,17,2,44,5,0.5,34,4.75,6,L,0.25437,0.1758235294117647,0.122,0.24261363636363634
2,5,10,0,4,43.37099999999997,18,202,105,60,103,97,43.858999999999966,7.502999999999994,0.7929999999999997,0.244,20,16,3,3,204,29,3,3,2,0.5,16,2.5,6,L,0.21499509803921565,0.25872413793103444,0.2643333333333333,0.08133333333333333
2,6,11,1,13,20.678999999999984,20,91,68,115,88,96,25.86399999999998,0.9149999999999996,1.463999999999999,2.8669999999999978,20,6,7,9,113,6,10,14,2,0,12,3,6,L,0.22888495575221238,0.1525,0.14639999999999997,0.2047857142857143
2,6,12,1,7,13.17599999999999,18,59,1,101,8,12,14.212999999999989,5.428999999999996,0.183,0.183,20,11,1,2,62,29,1,2,6,0.5,38,5,6,L,0.22924193548387092,0.18720689655172412,0.183,0.0915
2,7,13,1,8,34.098999999999975,19,168,108,100,102,17,35.257999999999974,1.4029999999999991,2.0739999999999985,4.574999999999997,20,5,8,14,176,5,8,26,2,0.5,18,3,6,L,0.20032954545454545,0.28059999999999996,0.25925,0.17596153846153845
2,7,14,1,7,11.89499999999999,18,61,3,5,7,11,13.785999999999989,1.4029999999999991,1.9519999999999986,4.391999999999997,20,5,6,15,68,6,9,24,6,1,72,6,6,L,0.20273529411764707,0.2338333333333333,0.21688888888888885,0.183
2,8,15,1,15,22.935999999999982,19,122,22,19,14,66,24.94899999999998,8.356999999999994,4.879999999999996,1.2809999999999993,20,18,10,6,128,36,16,9,6,0.5,40,5.5,6,L,0.19491406249999998,0.23213888888888887,0.305,0.14233333333333334
2,8,16,1,7,16.22599999999999,20,74,5,7,8,88,17.079999999999988,0.427,1.524999999999999,4.879999999999996,20,3,5,12,78,3,5,21,6,0.5,39,5.25,6,L,0.21897435897435896,0.14233333333333334,0.305,0.23238095238095235
2,9,17,1,11,26.29099999999998,19,126,70,64,38,110,28.181999999999977,5.001999999999996,1.0979999999999994,1.1589999999999994,20,11,7,3,139,16,8,4,4,0,15,3.75,6,L,0.20274820143884892,0.31262499999999993,0.13724999999999998,0.2897499999999999
2,9,18,1,7,10.369999999999992,17,52,1,2,6,26,11.528999999999991,0.8539999999999996,2.0129999999999986,40.32099999999997,20,5,5,16,55,5,5,153,6,0.5,41,5.75,6,L,0.2096181818181818,0.1708,0.4025999999999999,0.2635359477124183
2,10,19,1,1,24.03399999999998,20,107,83,80,78,73,25.13199999999998,0.7319999999999998,1.0979999999999994,3.537999999999997,20,2,3,11,114,2,3,19,3,1,36,3,6,L,0.22045614035087718,0.366,0.36599999999999994,0.18621052631578947
2,10,20,1,3,10.003999999999992,15,45,28,25,34,93,12.99299999999999,0.061,0.244,1.0369999999999995,20,1,1,1,59,1,1,2,5,0.5,33,4.5,6,L,0.22022033898305082,0.061,0.244,0.5185
2,11,21,1,1,8.966999999999993,18,53,2,83,112,79,70.57699999999994,0.8539999999999996,0.366,0.305,20,5,4,2,301,5,4,2,3,0,14,3.5,6,L,0.2344750830564784,0.1708,0.0915,0.1525
2,11,22,1,14,30.377999999999975,17,130,15,64,88,101,85.46099999999993,0.122,0.122,0.061,20,1,1,1,372,1,1,1,3,0,15,3.75,6,L,0.2297338709677419,0.122,0.122,0.061
2,12,23,1,14,59.16999999999995,19,266,94,50,3,53,65.26999999999995,0.5489999999999999,3.598999999999997,0.7929999999999997,20,2,8,5,297,2,18,5,3,0,17,4.25,6,L,0.21976430976430975,0.27449999999999997,0.19994444444444442,0.1586
2,12,24,1,1,24.70499999999998,20,119,78,75,77,71,25.55899999999998,2.561999999999998,0.122,5.367999999999996,20,6,1,12,123,8,1,22,3,0.5,22,3.25,6,L,0.20779674796747966,0.3202499999999999,0.122,0.24399999999999997
2,13,25,1,15,25.55899999999998,18,124,22,24,98,26,25.61999999999998,3.2329999999999974,21.898999999999983,89.60900000000291,19,14,16,14,125,24,100,372,6,0,19,4.75,6,L,0.20495999999999998,0.13470833333333332,0.21899,0.24088440860215046
2,13,26,1,7,57.034999999999954,14,243,7,53,60,4,57.64499999999995,15.188999999999988,2.805999999999998,8.539999999999994,20,19,7,16,249,63,9,33,6,0,20,5,6,L,0.23150602409638552,0.24109523809523806,0.3117777777777777,0.25878787878787873
2,14,27,1,3,21.776999999999983,20,99,31,30,29,100,21.959999999999983,1.3419999999999992,7.807999999999994,4.818999999999996,20,4,14,12,100,5,33,18,5,0.5,32,4.25,6,L,0.2196,0.26839999999999997,0.23660606060606057,0.2677222222222222
2,14,28,1,15,15.066999999999988,19,63,17,22,23,73,15.127999999999988,3.2939999999999974,6.8929999999999945,12.99299999999999,20,8,13,15,64,12,24,47,6,0.5,39,5.25,6,L,0.23637499999999997,0.27449999999999997,0.2872083333333333,0.27644680851063824
2,15,29,1,8,50.62999999999996,17,233,36,22,13,30,58.55999999999995,2.805999999999998,0.427,0.122,20,9,1,1,276,12,1,1,2,0,22,5.5,6,L,0.21217391304347824,0.2338333333333333,0.427,0.122
2,15,30,1,7,14.761999999999988,19,68,5,6,7,8,14.944999999999988,16.957999999999988,1.2809999999999993,0.061,20,17,4,1,71,62,4,1,6,1,72,6,6,L,0.21049295774647886,0.273516129032258,0.32025,0.061
3,1,1,0,7,19.641999999999985,15,97,14,20,23,39,19.702999999999985,6.099999999999995,2.805999999999998,38.30799999999997,16,17,10,16,98,32,13,154,6,0.5,41,5.75,5,L,0.20105102040816325,0.190625,0.21584615384615383,0.24875324675324673
3,1,2,0,2,16.28699999999999,18,83,5,35,26,6,234.54500000001775,2.744999999999998,0.305,0.488,20,7,3,1,958,8,3,1,4,0,22,5.5,5,L,0.24482776617954063,0.34312499999999996,0.10166666666666667,0.488
3,2,3,0,9,29.401999999999976,17,134,66,65,61,9,29.828999999999976,0.9759999999999995,3.3549999999999973,3.537999999999997,19,3,11,11,136,3,18,19,4,0.5,30,4.5,5,L,0.21933088235294115,0.3253333333333333,0.18638888888888888,0.18621052631578947
3,2,4,0,5,19.641999999999985,17,95,43,56,111,75,25.13199999999998,26.77899999999998,2.1349999999999985,0.305,20,19,6,2,113,121,9,2,5,0,14,3.5,5,L,0.2224070796460177,0.22131404958677683,0.2372222222222222,0.1525
3,3,5,0,7,17.140999999999988,19,80,22,24,111,49,17.201999999999988,4.452999999999997,2.805999999999998,4.086999999999997,20,13,9,12,81,21,13,20,6,0,18,4.5,5,L,0.21237037037037035,0.21204761904761904,0.2158461538461538,0.20435
3,3,6,0,6,13.11499999999999,18,69,5,9,11,77,13.602999999999989,2.1959999999999984,2.683999999999998,2.0129999999999986,20,7,6,6,72,11,7,7,6,0.5,39,5.25,5,L,0.18893055555555555,0.1996363636363636,0.38342857142857134,0.2875714285714286
3,4,7,0,9,18.848999999999986,18,89,65,70,68,100,20.129999999999985,0.6709999999999998,1.3419999999999992,3.4159999999999973,20,4,6,8,94,4,7,9,4,0.5,26,3.5,5,L,0.21414893617021274,0.16775,0.1917142857142857,0.3795555555555554
3,4,8,0,2,18.543999999999986,20,95,53,60,50,52,19.031999999999986,2.2569999999999983,1.8299999999999987,3.2939999999999974,20,9,8,12,97,10,8,17,4,1,48,4,5,L,0.1962061855670103,0.22569999999999996,0.22874999999999998,0.19376470588235292
3,5,9,1,1,34.220999999999975,14,153,76,10,81,99,34.464999999999975,4.818999999999996,0.7319999999999998,0.5489999999999999,16,10,3,1,155,15,3,1,3,0,14,3.5,5,L,0.2223548387096774,0.32126666666666664,0.244,0.5489999999999999
3,5,10,1,15,19.702999999999985,18,88,18,16,20,96,19.763999999999985,18.543999999999986,3.598999999999997,0.061,19,19,10,1,89,79,15,1,6,0.5,39,5.25,5,L,0.22206741573033706,0.23473417721518985,0.23993333333333333,0.061
3,6,11,1,15,12.87099999999999,17,57,13,24,21,15,16.896999999999988,0.183,1.524999999999999,0.7319999999999998,20,1,9,3,72,1,9,3,6,1,72,6,5,L,0.23468055555555556,0.183,0.16944444444444445,0.244
3,6,12,1,7,22.081999999999983,20,106,5,2,110,6,22.508999999999983,8.112999999999994,5.123999999999996,0.5489999999999999,20,17,12,3,109,39,22,3,6,0.5,38,5,5,L,0.2065045871559633,0.208025641025641,0.23290909090909087,0.183
3,7,13,1,3,27.693999999999978,18,125,106,63,17,31,29.828999999999976,14.517999999999988,2.3179999999999983,0.061,20,15,8,1,134,54,11,1,5,0,17,4.25,5,L,0.22260447761194027,0.2688518518518518,0.2107272727272727,0.061
3,7,14,1,7,11.223999999999991,19,48,1,5,7,84,12.93199999999999,2.683999999999998,0.305,2.1349999999999985,20,10,2,6,52,11,2,8,6,0.5,39,5.25,5,L,0.24869230769230766,0.244,0.1525,0.266875
3,8,15,1,7,21.105999999999984,18,95,7,5,12,93,21.898999999999983,1.7079999999999989,2.3789999999999982,8.356999999999994,20,6,8,16,98,7,8,40,6,0.5,39,5.25,5,L,0.22345918367346937,0.24399999999999997,0.29737499999999994,0.208925
3,8,16,1,15,25.37599999999998,19,131,15,16,21,58,25.43699999999998,4.818999999999996,4.635999999999997,3.903999999999997,20,9,12,10,132,18,15,15,6,0.5,40,5.5,5,L,0.19270454545454543,0.2677222222222222,0.3090666666666666,0.26026666666666665
3,9,17,1,1,40.07699999999997,18,171,80,68,74,75,41.11399999999997,3.4159999999999973,0.122,0.6099999999999999,20,9,1,3,176,12,1,4,3,0.5,22,3.25,5,L,0.23360227272727271,0.28466666666666657,0.122,0.1525
3,9,18,1,7,15.432999999999987,18,67,1,11,3,44,15.554999999999987,2.500999999999998,4.513999999999997,58.25499999999995,20,9,12,16,69,9,18,228,6,0.5,41,5.75,5,L,0.22543478260869565,0.2778888888888888,0.25077777777777777,0.25550438596491226
3,10,19,1,15,24.52199999999998,20,109,13,19,37,18,24.76599999999998,8.295999999999994,2.439999999999998,5.7339999999999955,20,18,8,10,111,35,9,15,6,0.5,41,5.75,5,L,0.2231171171171171,0.2370285714285714,0.271111111111111,0.3822666666666666
3,10,20,1,3,31.414999999999974,19,141,28,49,83,111,32.69599999999998,3.1109999999999975,3.2329999999999974,2.439999999999998,20,11,13,8,148,18,19,13,5,0,14,3.5,5,L,0.2209189189189189,0.1728333333333333,0.1701578947368421,0.18769230769230766
3,11,21,1,15,20.739999999999984,17,106,14,13,20,18,23.240999999999982,5.7949999999999955,0.122,5.123999999999996,20,11,2,11,115,21,2,16,6,1,72,6,5,L,0.20209565217391304,0.27595238095238095,0.061,0.3202499999999999
3,11,22,1,8,21.227999999999984,20,96,108,64,88,72,24.46099999999998,16.16499999999999,1.0979999999999994,6.404999999999995,20,17,4,14,112,70,4,24,2,0,13,3.25,5,L,0.2184017857142857,0.2309285714285714,0.27449999999999997,0.266875
3,12,23,1,15,23.48499999999998,20,132,23,18,49,30,23.97299999999998,8.173999999999994,3.2939999999999974,0.7319999999999998,20,14,11,3,136,33,18,4,6,0,21,5.25,5,L,0.1762720588235294,0.2476969696969697,0.183,0.183
3,12,24,1,7,18.238999999999987,15,92,2,1,6,7,18.299999999999986,16.40899999999999,0.244,2.9889999999999977,16,17,3,9,93,71,3,11,6,1,72,6,5,L,0.1967741935483871,0.231112676056338,0.08133333333333333,0.2717272727272727
3,13,25,1,14,63.25699999999995,18,266,91,88,72,92,64.35499999999995,1.0979999999999994,0.427,0.9149999999999996,20,9,2,3,273,11,2,4,3,0.5,22,3.25,5,L,0.2357326007326007,0.09981818181818182,0.2135,0.22875
3,13,26,1,12,35.013999999999974,13,169,37,58,23,17,35.135999999999974,3.9649999999999967,12.62699999999999,12.13899999999999,14,9,17,16,170,11,64,47,5,0,21,5.25,5,L,0.20668235294117646,0.36045454545454536,0.19729687499999998,0.2582765957446808
3,14,27,1,12,11.406999999999991,19,61,46,39,49,86,13.05399999999999,2.439999999999998,17.506999999999987,0.305,20,10,18,3,65,14,91,3,5,0,17,4.25,5,L,0.20083076923076923,0.17428571428571427,0.19238461538461535,0.10166666666666667
3,14,28,1,3,14.883999999999988,20,69,35,26,31,14,15.920999999999987,3.476999999999997,3.1719999999999975,3.1719999999999975,20,10,12,10,73,14,13,16,5,0.5,36,5.25,5,L,0.2180958904109589,0.24835714285714283,0.244,0.19824999999999998
3,15,29,1,15,17.628999999999987,20,101,17,15,20,23,19.885999999999985,0.488,3.4159999999999973,3.842999999999997,20,3,9,9,110,3,17,18,6,1,72,6,5,L,0.18078181818181818,0.16266666666666665,0.20094117647058823,0.2135
3,15,30,1,13,14.883999999999988,14,62,115,113,110,120,15.798999999999987,1.463999999999999,0.061,2.744999999999998,18,7,1,8,67,8,1,14,2,1,24,2,5,L,0.23580597014925372,0.183,0.061,0.19607142857142856
4,1,1,0,3,23.72899999999998,17,105,33,67,111,13,30.682999999999975,28.669999999999977,33.061999999999976,57.52299999999995,20,19,18,17,129,111,132,222,5,0,17,4.25,5,L,0.23785271317829454,0.25828828828828826,0.25046969696969695,0.2591126126126126
4,1,2,0,6,19.092999999999986,17,85,2,5,10,49,19.153999999999986,3.720999999999997,0.7319999999999998,20.129999999999985,18,10,2,16,86,11,2,95,6,0.5,40,5.5,5,L,0.22272093023255812,0.33827272727272717,0.36599999999999994,0.21189473684210525
4,2,3,0,10,24.76599999999998,20,112,100,29,63,96,40.86999999999997,15.066999999999988,1.7689999999999988,0.8539999999999996,20,19,8,4,171,67,8,5,3,0,14,3.5,5,L,0.23900584795321633,0.22488059701492533,0.221125,0.1708
4,2,4,0,7,17.750999999999987,17,83,13,19,15,21,18.238999999999987,1.585999999999999,12.01699999999999,0.122,20,7,17,1,86,9,53,1,6,1,72,6,5,L,0.21208139534883721,0.17622222222222222,0.22673584905660377,0.122
4,3,5,0,6,44.163999999999966,18,193,8,10,4,51,45.749999999999964,0.061,5.7339999999999955,0.6099999999999999,20,1,12,2,200,1,18,2,6,0.5,40,5.5,5,L,0.22874999999999998,0.061,0.3185555555555555,0.305
4,3,6,0,7,16.34799999999999,19,78,19,22,24,98,16.591999999999988,4.879999999999996,1.4029999999999991,4.452999999999997,20,15,7,10,80,27,7,19,6,0.5,38,5,5,L,0.2074,0.18074074074074073,0.20042857142857143,0.23436842105263156
4,4,7,0,10,13.41999999999999,18,64,66,85,23,61,45.505999999999965,0.061,0.366,0.061,20,1,3,1,197,1,3,1,3,0,17,4.25,5,L,0.230994923857868,0.061,0.122,0.061
4,4,8,0,2,10.796999999999992,18,55,55,53,107,104,13.54199999999999,5.001999999999996,0.061,0.7929999999999997,20,11,1,4,66,16,1,4,4,0,12,3,5,L,0.20518181818181816,0.312625,0.061,0.19824999999999998
4,5,9,1,3,17.750999999999987,18,85,34,21,33,49,22.203999999999983,1.2199999999999993,5.7339999999999955,2.744999999999998,20,5,13,8,101,6,22,12,5,0,20,5,5,L,0.21984158415841581,0.20333333333333334,0.2606363636363636,0.22874999999999998
4,5,10,1,12,21.410999999999984,13,81,40,42,46,7,21.471999999999984,4.208999999999997,0.183,11.650999999999991,14,9,2,16,82,12,2,49,5,0.5,36,5.25,5,L,0.2618536585365853,0.3507499999999999,0.0915,0.2377755102040816
4,6,11,1,1,11.71199999999999,18,59,1,62,10,26,49.77599999999996,1.585999999999999,0.366,0.7319999999999998,20,8,2,3,220,8,2,4,3,0,21,5.25,5,L,0.22625454545454543,0.19824999999999998,0.183,0.183
4,6,12,1,12,11.040999999999991,17,57,39,41,40,45,12.74899999999999,0.427,0.244,3.1719999999999975,20,5,3,10,66,5,3,15,5,1,60,5,5,L,0.19316666666666665,0.0854,0.08133333333333333,0.21146666666666666
4,7,13,1,15,24.88799999999998,18,106,20,66,18,61,30.133999999999975,2.805999999999998,0.183,2.0739999999999985,20,10,1,6,127,12,2,7,6,0,20,5,5,L,0.23727559055118108,0.23383333333333328,0.0915,0.29628571428571426
4,7,14,1,13,34.159999999999975,15,139,120,86,114,112,34.586999999999975,3.1109999999999975,1.463999999999999,3.1719999999999975,17,8,7,9,141,11,7,10,2,0.5,15,2.25,5,L,0.2452978723404255,0.2828181818181818,0.20914285714285713,0.3171999999999999
4,8,15,1,7,25.49799999999998,18,120,5,92,7,119,25.55899999999998,4.025999999999997,5.306999999999996,1.8299999999999987,19,12,15,6,121,18,28,6,6,0,17,4.25,5,L,0.21123140495867768,0.22366666666666665,0.18953571428571428,0.30499999999999994
4,8,16,1,15,17.628999999999987,19,88,22,13,18,38,19.763999999999985,1.9519999999999986,14.273999999999988,2.1349999999999985,20,8,16,9,98,10,60,9,6,0.5,41,5.75,5,L,0.2016734693877551,0.19519999999999998,0.23789999999999997,0.2372222222222222
4,9,17,1,7,24.03399999999998,19,144,11,12,6,8,27.388999999999978,0.488,5.489999999999996,0.061,20,4,15,1,158,4,24,1,6,1,72,6,5,L,0.17334810126582276,0.122,0.22874999999999998,0.061
4,9,18,1,8,27.449999999999978,19,126,98,103,106,47,28.181999999999977,0.061,5.916999999999995,9.576999999999993,20,1,14,16,128,1,25,48,2,0.5,17,2.75,5,L,0.220171875,0.061,0.23667999999999997,0.19952083333333331
4,10,19,1,12,15.432999999999987,16,71,1,115,114,43,42.45599999999997,0.122,0.122,0.244,20,1,1,2,178,1,1,2,5,0,15,3.75,5,L,0.23851685393258423,0.122,0.122,0.122
4,10,20,1,8,50.32499999999996,17,209,99,49,51,25,52.70399999999996,14.578999999999988,2.2569999999999983,3.537999999999997,20,15,8,12,221,47,11,16,2,0,15,3.75,5,L,0.23847963800904973,0.31019148936170204,0.2051818181818182,0.221125
4,11,21,1,7,16.22599999999999,16,64,9,5,11,99,16.652999999999988,1.8909999999999987,3.842999999999997,1.9519999999999986,19,5,7,8,67,5,12,10,6,0.5,38,5,5,L,0.2485522388059701,0.3781999999999999,0.32025,0.19519999999999998
4,11,22,1,12,18.665999999999986,19,85,37,40,39,94,20.861999999999984,6.038999999999995,0.183,7.9299999999999935,20,16,2,15,97,26,2,31,5,0.5,33,4.5,5,L,0.21507216494845358,0.23226923076923073,0.0915,0.2558064516129032
4,12,23,1,11,48.12899999999996,18,224,66,48,43,40,48.67799999999996,4.7579999999999965,7.563999999999994,1.3419999999999992,20,12,15,4,229,21,36,4,4,0.5,34,4.75,5,L,0.21256768558951963,0.22657142857142856,0.21011111111111108,0.3354999999999999
4,12,24,1,7,26.10799999999998,17,126,2,11,4,29,26.16899999999998,3.781999999999997,8.417999999999994,1.8909999999999987,18,10,14,9,127,12,32,10,6,0.5,41,5.75,5,L,0.20605511811023622,0.31516666666666665,0.2630625,0.1891
4,13,25,1,14,40.44299999999997,18,178,7,6,3,34,65.81899999999995,19.214999999999986,3.720999999999997,0.061,20,19,12,1,277,91,20,1,3,0.5,41,5.75,5,L,0.23761371841155232,0.21115384615384614,0.18605,0.061
4,13,26,1,15,19.092999999999986,19,95,16,110,43,21,19.153999999999986,11.162999999999991,1.524999999999999,0.488,20,16,5,4,96,44,5,4,6,0,19,4.75,5,L,0.19952083333333331,0.25370454545454546,0.305,0.122
4,14,27,1,1,16.957999999999988,20,85,80,78,84,98,18.787999999999986,4.879999999999996,4.330999999999997,4.269999999999997,20,12,9,13,98,21,12,23,3,0.5,20,2.75,5,L,0.1917142857142857,0.23238095238095235,0.3609166666666666,0.18565217391304348
4,14,28,1,15,33.305999999999976,16,136,17,14,16,15,33.610999999999976,6.709999999999995,6.465999999999995,5.489999999999996,18,14,16,14,138,25,31,21,6,1,72,6,5,L,0.24355797101449272,0.26839999999999997,0.20858064516129032,0.2614285714285714
4,15,29,1,8,26.65699999999998,19,136,102,108,71,105,32.81799999999998,0.061,0.183,2.683999999999998,20,1,1,9,160,1,1,12,2,0.5,16,2.5,5,L,0.20511249999999998,0.061,0.183,0.22366666666666662
4,15,30,1,2,38.85699999999997,17,159,50,109,59,112,39.34499999999997,3.4159999999999973,1.4029999999999991,0.7319999999999998,20,12,6,4,162,13,6,4,4,0,12,3,5,L,0.24287037037037035,0.26276923076923075,0.23383333333333334,0.183
5,1,1,0,3,32.02499999999998,14,130,29,28,27,26,34.708999999999975,0.5489999999999999,0.183,12.19999999999999,20,3,3,15,143,3,3,59,5,1,60,5,6,L,0.2427202797202797,0.183,0.061,0.20677966101694914
5,1,2,0,6,12.74899999999999,20,69,6,101,4,9,12.80999999999999,2.9889999999999977,10.186999999999992,1.3419999999999992,20,9,15,6,70,12,36,7,6,0.5,38,5,6,L,0.183,0.2490833333333333,0.2829722222222222,0.1917142857142857
5,2,3,0,6,32.81799999999998,20,158,3,10,93,119,32.87899999999998,1.0369999999999995,3.3549999999999973,1.0979999999999994,20,5,9,3,159,7,14,3,6,0,17,4.25,6,L,0.20678616352201257,0.14814285714285713,0.2396428571428571,0.3659999999999999
5,2,4,0,7,21.593999999999983,19,103,16,105,104,76,21.654999999999983,10.735999999999992,0.6709999999999998,2.8669999999999978,20,15,4,11,104,48,5,16,6,0,13,3.25,6,L,0.20822115384615383,0.22366666666666665,0.13419999999999999,0.17918749999999997
5,3,5,0,5,24.76599999999998,15,120,40,39,46,101,24.88799999999998,0.305,0.183,11.83399999999999,16,1,1,14,121,1,1,49,5,0.5,32,4.25,6,L,0.20568595041322313,0.305,0.183,0.24151020408163262
5,3,6,0,3,29.462999999999976,18,114,89,90,96,110,63.86699999999995,1.0979999999999994,0.9759999999999995,5.611999999999996,20,4,4,14,263,4,5,23,5,0.5,20,2.75,6,L,0.2428403041825095,0.27449999999999997,0.19519999999999998,0.24399999999999997
5,4,7,0,6,12.62699999999999,18,66,4,7,12,75,12.87099999999999,11.345999999999991,0.244,5.977999999999995,20,15,3,12,69,47,3,23,6,0.5,39,5.25,6,L,0.18653623188405796,0.2414042553191489,0.08133333333333333,0.25991304347826083
5,4,8,0,7,19.214999999999986,20,103,16,91,21,17,19.275999999999986,2.0739999999999985,7.319999999999994,1.463999999999999,20,6,13,8,104,6,32,9,6,0.5,39,5.25,6,L,0.18534615384615383,0.3456666666666666,0.22874999999999998,0.16266666666666665
5,5,9,0,5,52.45999999999996,14,208,48,41,110,23,53.19199999999996,1.585999999999999,10.979999999999992,7.197999999999994,19,5,16,15,213,5,51,31,5,0,18,4.5,6,L,0.2497276995305164,0.3171999999999999,0.2152941176470588,0.23219354838709677
5,5,10,0,2,14.822999999999988,16,69,1,55,83,79,62.34199999999995,6.465999999999995,0.061,0.183,20,14,1,1,262,17,1,1,4,0,16,4,6,L,0.2379465648854962,0.3803529411764705,0.061,0.183
5,6,11,1,7,28.669999999999977,20,129,10,7,6,9,31.048999999999975,2.8669999999999978,0.7319999999999998,0.6709999999999998,20,11,3,5,138,12,3,6,6,1,72,6,6,L,0.22499275362318838,0.23891666666666664,0.244,0.11183333333333333
5,6,12,1,2,41.66299999999997,15,186,49,56,50,80,43.37099999999997,2.683999999999998,0.061,5.489999999999996,20,11,1,12,192,13,1,19,4,0.5,27,3.75,6,L,0.22589062499999998,0.20646153846153845,0.061,0.28894736842105256
5,7,13,1,3,19.092999999999986,17,79,14,115,26,25,29.34099999999998,1.0979999999999994,0.305,0.7929999999999997,20,4,2,2,122,5,2,2,5,0,18,4.5,6,L,0.24049999999999996,0.2196,0.1525,0.39649999999999996
5,7,14,1,12,13.48099999999999,19,71,12,88,87,48,72.04099999999994,0.122,0.061,0.122,20,2,1,1,321,2,1,1,5,0,17,4.25,6,L,0.22442679127725854,0.061,0.061,0.122
5,8,15,1,3,14.822999999999988,19,71,31,22,20,85,16.10399999999999,7.441999999999994,2.9279999999999977,1.585999999999999,20,15,8,7,75,28,9,10,5,0,20,5,6,L,0.21472,0.26578571428571424,0.32533333333333325,0.1586
5,8,16,1,8,23.54599999999998,15,104,103,104,108,1,24.82699999999998,0.366,0.7929999999999997,15.127999999999988,19,4,4,17,110,4,4,61,2,0.5,18,3,6,L,0.22569999999999998,0.0915,0.19824999999999998,0.24799999999999997
5,9,17,1,3,19.153999999999986,20,88,25,32,67,31,20.983999999999984,0.183,4.086999999999997,2.500999999999998,20,1,7,8,94,2,9,13,5,0.5,34,4.75,6,L,0.22323404255319146,0.0915,0.45411111111111097,0.19238461538461538
5,9,18,1,7,23.72899999999998,20,120,4,10,2,7,25.13199999999998,4.6969999999999965,2.744999999999998,1.0369999999999995,20,11,10,7,128,15,16,8,6,1,72,6,6,L,0.19634374999999998,0.31313333333333326,0.1715625,0.129625
5,10,19,1,3,27.998999999999977,18,120,84,14,80,34,58.43799999999995,5.245999999999996,0.6099999999999999,0.061,20,15,3,1,252,25,3,1,5,0,17,4.25,6,L,0.23189682539682538,0.20984,0.20333333333333334,0.061
5,10,20,1,7,8.356999999999994,15,41,7,6,9,12,11.589999999999991,3.781999999999997,0.427,0.7929999999999997,20,11,3,5,56,17,3,6,6,1,72,6,6,L,0.2069642857142857,0.2224705882352941,0.14233333333333334,0.13216666666666665
5,11,21,1,7,15.676999999999987,19,75,8,5,116,1,15.737999999999987,0.7319999999999998,9.881999999999993,0.244,20,3,16,2,76,3,45,2,6,0.5,38,5,6,L,0.20707894736842103,0.244,0.21959999999999996,0.122
5,11,22,1,1,43.24899999999997,15,178,75,30,81,28,44.285999999999966,6.648999999999995,2.1959999999999984,5.184999999999996,19,15,6,10,182,29,7,19,3,0,16,4,6,L,0.24332967032967032,0.2292758620689655,0.31371428571428567,0.27289473684210525
5,12,23,1,2,63.43999999999995,15,276,60,57,58,31,63.68399999999995,1.2199999999999993,0.9759999999999995,4.452999999999997,16,6,5,13,277,7,6,25,4,0.5,29,4.25,6,L,0.22990613718411548,0.17428571428571424,0.16266666666666665,0.17811999999999997
5,12,24,1,11,8.295999999999994,19,49,65,2,68,91,11.89499999999999,223.87000000001842,0.7319999999999998,0.488,20,19,2,3,60,905,2,4,4,0,17,4.25,6,L,0.19824999999999998,0.24737016574585632,0.3659999999999999,0.122
5,13,25,1,11,32.69599999999998,13,147,67,66,65,63,33.061999999999976,1.8909999999999987,0.122,0.9149999999999996,16,8,2,5,150,9,2,5,4,1,48,4,6,L,0.2204133333333333,0.2101111111111111,0.061,0.183
5,13,26,1,13,17.689999999999987,19,88,120,111,109,21,17.750999999999987,3.0499999999999976,7.258999999999994,10.552999999999992,20,8,16,15,89,12,25,51,2,0.5,18,3,6,L,0.19944943820224717,0.25416666666666665,0.29035999999999995,0.20692156862745095
5,14,27,1,14,36.96599999999997,20,151,65,91,64,93,37.51499999999997,0.122,2.500999999999998,4.208999999999997,20,2,11,11,152,2,16,17,3,0,14,3.5,6,L,0.24680921052631577,0.061,0.1563125,0.2475882352941176
5,14,28,1,7,11.162999999999991,14,56,5,8,10,9,13.785999999999989,0.305,0.427,9.759999999999993,20,2,2,14,70,2,2,32,6,1,72,6,6,L,0.19694285714285714,0.1525,0.2135,0.30499999999999994
5,15,29,1,2,13.846999999999989,15,65,60,57,53,59,15.493999999999987,0.488,1.1589999999999994,5.611999999999996,19,2,7,13,70,2,7,26,4,1,48,4,6,L,0.22134285714285712,0.244,0.16557142857142856,0.21584615384615383
5,15,30,1,7,10.003999999999992,16,46,5,12,28,74,10.247999999999992,3.720999999999997,9.271999999999993,0.122,18,12,16,1,48,14,32,1,6,0,20,5,6,L,0.21349999999999997,0.2657857142857143,0.28974999999999995,0.122
6,1,1,0,3,32.57399999999998,20,130,33,31,103,28,33.122999999999976,2.3179999999999983,5.855999999999995,10.491999999999992,20,9,14,14,133,13,24,41,5,0.5,32,4.25,2,L,0.24904511278195485,0.17830769230769228,0.24399999999999997,0.2559024390243902
6,1,2,0,2,22.691999999999982,16,95,13,53,50,92,2525.8270000000302,0.488,0.061,0.488,20,2,1,3,10313,2,1,3,4,0,17,4.25,2,L,0.24491680403374358,0.244,0.061,0.16266666666666665
6,2,3,1,15,31.292999999999974,20,158,14,16,76,108,31.414999999999974,4.818999999999996,1.9519999999999986,2.1349999999999985,20,12,4,8,160,20,5,9,6,0,17,4.25,2,L,0.19634374999999998,0.24094999999999997,0.3903999999999999,0.2372222222222222
6,2,4,1,14,68.13700000000043,14,280,86,54,28,26,70.08900000000042,13.11499999999999,2.9279999999999977,9.576999999999993,20,17,8,16,291,63,9,48,3,0,17,4.25,2,L,0.24085567010309275,0.20817460317460315,0.3253333333333333,0.19952083333333331
6,3,5,1,2,15.798999999999987,19,75,17,19,56,41,50.26399999999996,0.122,0.305,0.183,20,1,2,1,232,1,2,1,4,0,21,5.25,2,L,0.2166551724137931,0.122,0.1525,0.183
6,3,6,1,7,17.628999999999987,20,87,3,4,89,61,17.689999999999987,19.885999999999985,0.122,0.061,20,17,2,1,88,79,2,1,6,0,19,4.75,2,L,0.20102272727272724,0.25172151898734174,0.061,0.061
6,4,7,1,3,17.811999999999987,19,84,31,29,90,14,19.275999999999986,0.427,13.11499999999999,2.9889999999999977,20,3,17,12,90,3,55,16,5,0,19,4.75,2,L,0.21417777777777777,0.14233333333333334,0.23845454545454542,0.1868125
6,4,8,1,7,20.922999999999984,19,82,3,9,6,11,20.983999999999984,0.183,8.600999999999994,0.7319999999999998,20,2,15,6,83,2,39,6,6,1,72,6,2,L,0.2528192771084337,0.0915,0.22053846153846152,0.122
6,5,9,1,7,30.499999999999975,19,148,5,99,35,36,30.560999999999975,5.489999999999996,4.269999999999997,1.7079999999999989,20,13,13,5,149,20,19,8,6,0,18,4.5,2,L,0.20510738255033556,0.27449999999999997,0.22473684210526315,0.2135
6,5,10,1,2,80.21500000000182,17,324,85,57,37,89,80.58100000000182,1.7689999999999988,0.061,1.0979999999999994,18,9,1,3,325,11,1,4,4,0,15,3.75,2,L,0.24794153846153844,0.1608181818181818,0.061,0.27449999999999997
6,6,11,1,13,46.237999999999964,17,203,63,89,113,95,69.11299999999994,9.393999999999993,0.427,0.6099999999999999,20,19,4,2,313,42,4,2,2,0,12,3,2,L,0.22080830670926516,0.22366666666666665,0.10675,0.305
6,6,12,1,1,13.11499999999999,18,61,108,44,78,79,22.630999999999982,3.476999999999997,0.7319999999999998,0.305,20,8,4,2,94,12,4,2,3,0,13,3.25,2,L,0.24075531914893614,0.28974999999999995,0.183,0.1525
7,1,1,0,2,17.262999999999987,19,90,3,5,57,54,306.5860000000104,10.735999999999992,0.061,0.366,20,18,1,3,1211,44,1,4,4,0,20,5,4,L,0.25316763005780335,0.24399999999999997,0.061,0.0915
7,1,2,0,9,18.543999999999986,16,85,62,79,108,34,19.641999999999985,27.571999999999978,12.26099999999999,12.07799999999999,20,18,17,17,93,94,45,47,4,0,14,3.5,4,L,0.2112043010752688,0.29331914893617017,0.27246666666666663,0.2569787234042553
7,2,3,0,6,16.530999999999988,20,81,3,1,5,67,21.654999999999983,1.1589999999999994,4.147999999999997,2.744999999999998,20,7,15,8,109,8,25,9,6,0.5,40,5.5,4,L,0.19866972477064218,0.144875,0.16591999999999998,0.30499999999999994
7,2,4,0,7,9.515999999999993,18,48,15,16,17,117,10.674999999999992,5.184999999999996,6.465999999999995,2.1349999999999985,20,15,12,12,55,20,20,14,6,0.5,38,5,4,L,0.1940909090909091,0.2592499999999999,0.3232999999999999,0.1525
7,3,5,0,9,26.71799999999998,19,139,47,65,74,66,52.21599999999996,0.061,13.724999999999989,0.122,20,1,18,1,241,1,68,1,4,0,16,4,4,L,0.21666390041493777,0.061,0.20183823529411762,0.122
7,3,6,0,3,45.200999999999965,17,205,32,34,115,51,53.06999999999996,0.9149999999999996,1.2809999999999993,6.221999999999995,20,5,7,14,238,5,7,27,5,0,16,4,4,L,0.2229831932773109,0.183,0.183,0.23044444444444442
7,4,7,1,3,41.90699999999997,15,178,33,25,15,29,42.76099999999997,0.183,1.0369999999999995,3.476999999999997,19,2,3,9,182,3,3,15,5,0.5,36,5.25,4,L,0.23495054945054944,0.061,0.3456666666666666,0.23179999999999998
7,4,8,1,7,22.813999999999982,20,106,7,9,10,39,22.874999999999982,2.744999999999998,0.6099999999999999,15.859999999999987,20,8,5,16,107,11,7,47,6,0.5,41,5.75,4,L,0.21378504672897194,0.24954545454545451,0.08714285714285715,0.33744680851063824
7,5,9,1,3,25.74199999999998,20,129,25,30,31,91,26.41299999999998,3.1719999999999975,2.3789999999999982,1.8909999999999987,20,7,9,7,132,10,9,9,5,0.5,33,4.5,4,L,0.20009848484848483,0.3171999999999999,0.2643333333333333,0.2101111111111111
7,5,10,1,7,11.77299999999999,17,63,5,1,12,8,11.83399999999999,2.805999999999998,0.7929999999999997,2.622999999999998,18,11,2,9,64,14,2,10,6,1,72,6,4,L,0.18490625,0.2004285714285714,0.39649999999999985,0.2623
7,6,11,1,12,26.90099999999998,16,130,15,18,19,118,57.278999999999954,5.245999999999996,3.842999999999997,0.061,20,14,11,1,277,15,13,1,5,0.5,38,5,4,L,0.20678339350180502,0.34973333333333323,0.29561538461538456,0.061
7,6,12,1,7,10.918999999999992,18,54,1,3,12,10,12.87099999999999,0.8539999999999996,1.463999999999999,4.025999999999997,20,5,7,10,63,6,7,14,6,1,72,6,4,L,0.2043015873015873,0.14233333333333334,0.20914285714285713,0.2875714285714285
7,7,13,1,8,16.40899999999999,17,73,101,107,100,33,17.994999999999987,1.2199999999999993,0.488,7.380999999999994,20,3,3,14,78,3,4,28,2,0.5,17,2.75,4,L,0.23070512820512817,0.4066666666666666,0.122,0.2636071428571428
7,7,14,1,12,20.190999999999985,19,86,41,14,22,71,21.959999999999983,15.493999999999987,0.122,0.366,20,19,1,4,97,67,1,4,5,0,21,5.25,4,L,0.22639175257731958,0.23125373134328356,0.122,0.0915
7,8,15,1,7,25.49799999999998,18,121,6,2,98,100,25.80299999999998,5.550999999999996,5.245999999999996,6.099999999999995,20,15,13,14,125,24,23,27,6,0,16,4,4,L,0.206424,0.23129166666666665,0.22808695652173913,0.22592592592592592
7,8,16,1,13,74.17600000000112,19,316,109,116,42,95,77.16500000000113,0.061,12.26099999999999,0.366,20,1,17,2,328,1,41,2,2,0,12,3,4,L,0.2352591463414634,0.061,0.2990487804878048,0.183
7,9,17,1,15,16.16499999999999,20,78,18,22,23,25,16.652999999999988,1.524999999999999,1.1589999999999994,3.598999999999997,20,7,5,12,81,8,5,21,6,0.5,41,5.75,4,L,0.20559259259259258,0.190625,0.23179999999999995,0.17138095238095238
7,9,18,1,1,27.632999999999978,14,124,7,9,107,56,48.86099999999996,12.07799999999999,8.234999999999994,8.722999999999994,20,17,15,15,214,43,34,33,3,0,18,4.5,4,L,0.22832242990654203,0.2808837209302325,0.24220588235294116,0.2643333333333333
7,10,19,1,15,32.14699999999998,15,136,22,21,23,105,32.32999999999998,2.3789999999999982,1.646999999999999,2.500999999999998,17,6,8,9,138,8,10,10,6,0.5,38,5,4,L,0.23427536231884055,0.29737499999999994,0.16469999999999999,0.25009999999999993
7,10,20,1,3,20.556999999999984,20,104,36,29,33,54,26.22999999999998,1.646999999999999,0.488,5.489999999999996,20,7,3,13,120,9,3,21,5,0.5,34,4.75,4,L,0.21858333333333332,0.183,0.16266666666666665,0.2614285714285714
7,11,21,1,2,14.944999999999988,20,64,54,35,29,77,21.166999999999984,7.075999999999994,8.417999999999994,14.517999999999988,20,14,16,17,99,26,39,61,4,0,17,4.25,4,L,0.2138080808080808,0.27215384615384614,0.21584615384615383,0.238
7,11,22,1,11,38.06399999999997,15,169,63,70,93,18,40.99199999999997,1.646999999999999,3.2939999999999974,7.014999999999994,20,6,9,16,180,7,12,34,4,0,17,4.25,4,L,0.2277333333333333,0.23528571428571426,0.27449999999999997,0.20632352941176468
7,12,23,1,3,24.21699999999998,20,120,26,30,86,114,24.64399999999998,2.2569999999999983,1.463999999999999,24.88799999999998,20,9,4,16,124,13,5,97,5,0,15,3.75,4,L,0.19874193548387095,0.17361538461538462,0.2928,0.25657731958762886
7,12,24,1,8,20.373999999999985,15,104,98,108,104,99,21.715999999999983,2.0739999999999985,0.6099999999999999,1.8299999999999987,20,6,3,6,111,6,3,8,2,1,24,2,4,L,0.19563963963963962,0.34566666666666657,0.20333333333333334,0.22875
7,13,25,1,11,47.21399999999996,12,212,15,104,63,26,82.77699999999993,1.1589999999999994,0.061,3.2329999999999974,20,6,1,10,364,6,1,13,4,0,17,4.25,4,L,0.22740934065934065,0.19316666666666665,0.061,0.24869230769230763
7,13,26,1,7,12.80999999999999,16,63,8,11,54,57,13.785999999999989,3.1719999999999975,0.9149999999999996,6.160999999999995,19,11,2,12,66,19,2,24,6,0,20,5,4,L,0.20887878787878786,0.16694736842105262,0.45749999999999985,0.2567083333333333
7,14,27,1,15,13.724999999999989,14,75,14,22,16,15,13.846999999999989,1.463999999999999,1.0979999999999994,8.051999999999994,16,7,4,15,77,7,4,28,6,1,72,6,4,L,0.17983116883116881,0.20914285714285713,0.27449999999999997,0.28757142857142853
7,14,28,1,3,23.179999999999982,20,112,30,25,4,5,24.58299999999998,1.4029999999999991,8.295999999999994,5.428999999999996,20,5,16,15,118,5,32,31,5,0,22,5.5,4,L,0.20833050847457626,0.2806,0.25925,0.1751290322580645
8,1,1,0,6,14.578999999999988,18,66,11,5,12,70,15.676999999999987,3.1719999999999975,2.3789999999999982,20.800999999999984,20,15,11,16,70,19,13,84,6,0.5,40,5.5,6,L,0.22395714285714283,0.16694736842105262,0.183,0.24763095238095234
8,1,2,0,5,15.676999999999987,16,85,42,38,40,112,16.591999999999988,1.2199999999999993,2.8669999999999978,0.244,20,5,11,2,93,6,13,2,5,0.5,32,4.25,6,L,0.17840860215053764,0.20333333333333334,0.22053846153846152,0.122
8,2,3,0,10,31.353999999999974,18,152,93,88,86,105,32.69599999999998,1.0979999999999994,8.356999999999994,11.528999999999991,20,7,17,17,157,9,47,50,3,0.5,20,2.75,6,L,0.20825477707006368,0.122,0.17780851063829786,0.23057999999999998
8,2,4,0,6,23.48499999999998,19,115,1,10,8,82,23.54599999999998,0.305,2.561999999999998,6.221999999999995,20,1,4,14,116,1,6,23,6,0.5,39,5.25,6,L,0.20298275862068965,0.305,0.4269999999999999,0.27052173913043476
8,3,5,0,7,11.040999999999991,17,58,13,20,14,15,11.162999999999991,0.061,2.805999999999998,17.567999999999987,19,1,11,16,60,1,12,74,6,1,72,6,6,L,0.18605,0.061,0.23383333333333334,0.23740540540540536
8,3,6,0,9,28.364999999999977,14,117,70,64,2,5,31.048999999999975,0.7929999999999997,4.513999999999997,2.9279999999999977,20,5,9,7,129,5,16,8,4,0,20,5,6,L,0.24068992248062013,0.1586,0.28212499999999996,0.36599999999999994
8,4,7,0,5,20.251999999999985,18,99,42,40,39,75,20.800999999999984,3.842999999999997,2.805999999999998,6.526999999999995,20,9,11,12,103,11,14,29,5,0.5,33,4.5,6,L,0.2019514563106796,0.34936363636363627,0.2004285714285714,0.22506896551724137
8,4,8,0,6,15.737999999999987,16,86,6,1,9,10,19.702999999999985,4.513999999999997,0.061,0.366,20,11,1,2,101,21,1,3,6,1,72,6,6,L,0.19507920792079206,0.21495238095238092,0.061,0.122
8,5,9,0,2,22.386999999999983,15,103,59,57,53,48,22.508999999999983,3.3549999999999973,2.561999999999998,0.6709999999999998,16,10,13,3,104,16,14,3,4,0.5,29,4.25,6,L,0.2164326923076923,0.20968749999999997,0.183,0.22366666666666665
8,5,10,0,10,27.449999999999978,20,127,94,85,91,71,29.340999999999976,0.183,4.025999999999997,0.6709999999999998,20,2,12,3,137,2,15,4,3,0.5,22,3.25,6,L,0.21416788321167882,0.0915,0.26839999999999997,0.16775
8,6,11,1,12,23.48499999999998,20,123,17,38,39,37,32.14699999999998,0.5489999999999999,1.9519999999999986,1.1589999999999994,20,3,10,4,168,3,12,5,5,0.5,36,5.25,6,L,0.19135119047619048,0.183,0.16266666666666665,0.23179999999999995
8,6,12,1,7,15.859999999999987,16,78,4,5,91,9,15.920999999999987,5.001999999999996,0.366,0.5489999999999999,17,11,3,3,79,20,3,3,6,0.5,39,5.25,6,L,0.20153164556962025,0.2501,0.122,0.183
8,7,13,1,15,18.787999999999986,17,74,117,14,17,20,25.25399999999998,1.1589999999999994,0.061,1.585999999999999,20,4,1,5,96,4,1,5,6,0.5,38,5,6,L,0.2630625,0.28975,0.061,0.3172
8,7,14,1,7,28.303999999999977,18,107,4,2,103,70,28.425999999999977,7.9299999999999935,0.9149999999999996,0.6099999999999999,20,15,3,3,109,30,3,3,6,0,18,4.5,6,L,0.260788990825688,0.2643333333333333,0.305,0.20333333333333334
8,8,15,1,3,8.844999999999994,16,45,29,3,36,93,9.454999999999993,57.52299999999995,1.7079999999999989,1.2809999999999993,18,19,4,3,47,229,5,3,5,0,19,4.75,6,L,0.20117021276595745,0.2511921397379912,0.34159999999999996,0.42699999999999994
8,8,16,1,1,38.06399999999997,16,171,79,15,64,39,38.97899999999997,2.561999999999998,3.4159999999999973,6.770999999999995,19,6,9,14,174,7,13,30,3,0,18,4.5,6,L,0.2240172413793103,0.36599999999999994,0.26276923076923075,0.22569999999999996
8,9,17,1,3,21.227999999999984,19,93,34,36,25,29,21.349999999999984,2.622999999999998,0.427,1.2809999999999993,20,7,2,6,95,10,3,7,5,1,60,5,6,L,0.22473684210526312,0.2623,0.14233333333333334,0.183
8,9,18,1,2,59.29199999999995,15,240,51,53,47,37,61.12199999999995,2.0739999999999985,2.622999999999998,3.2329999999999974,20,8,5,10,245,10,7,10,4,0,18,4.5,6,L,0.2494775510204082,0.20739999999999997,0.3747142857142856,0.3233
8,10,19,1,1,20.739999999999984,19,104,84,11,83,78,20.861999999999984,6.099999999999995,1.9519999999999986,5.367999999999996,20,14,7,14,106,22,9,31,3,0.5,24,3.75,6,L,0.19681132075471697,0.2772727272727272,0.21688888888888888,0.17316129032258065
8,10,20,1,13,28.730999999999977,20,135,94,114,112,117,41.90699999999997,0.305,1.8299999999999987,3.4159999999999973,20,1,6,8,191,1,6,11,2,0.5,15,2.25,6,L,0.21940837696335078,0.305,0.305,0.3105454545454545
8,11,21,1,1,26.04699999999998,19,130,76,78,1,110,28.059999999999977,1.9519999999999986,6.038999999999995,2.1349999999999985,20,9,14,10,139,11,26,13,3,0,14,3.5,6,L,0.2018705035971223,0.17745454545454545,0.23226923076923076,0.1642307692307692
8,11,22,1,15,30.743999999999975,18,144,14,71,86,18,30.804999999999975,4.879999999999996,1.585999999999999,4.147999999999997,19,15,9,14,145,29,11,18,6,0,19,4.75,6,L,0.21244827586206894,0.1682758620689655,0.1441818181818182,0.23044444444444442
8,12,23,1,8,10.003999999999992,14,48,4,78,6,66,23.72899999999998,0.061,4.818999999999996,0.244,20,1,14,2,107,1,23,2,2,0,19,4.75,6,L,0.2217663551401869,0.061,0.20952173913043476,0.122
8,12,24,1,3,20.495999999999984,20,101,16,35,86,90,83.08199999999994,0.122,0.366,1.0979999999999994,20,1,2,3,376,1,2,3,5,0,17,4.25,6,L,0.2209627659574468,0.122,0.183,0.36599999999999994
8,13,25,1,14,48.31199999999996,18,233,87,85,98,60,59.04799999999995,3.2329999999999974,1.2809999999999993,2.3789999999999982,20,11,6,11,268,13,6,14,3,0,12,3,6,L,0.22032835820895527,0.24869230769230768,0.2135,0.16992857142857143
8,13,26,1,13,34.342999999999975,20,177,115,120,119,40,35.013999999999974,0.305,2.744999999999998,1.0979999999999994,20,1,9,2,180,1,11,2,2,0.5,17,2.75,6,L,0.1945222222222222,0.305,0.24954545454545451,0.5489999999999999
8,14,27,1,12,15.432999999999987,20,81,118,96,13,120,25.43699999999998,10.613999999999992,2.744999999999998,2.8669999999999978,20,16,11,8,122,44,13,9,5,0,13,3.25,6,L,0.2085,0.2412272727272727,0.21115384615384614,0.31855555555555554
8,14,28,1,7,30.621999999999975,20,138,8,12,2,71,31.353999999999974,0.6099999999999999,3.1719999999999975,5.245999999999996,20,1,9,14,143,1,11,19,6,0.5,40,5.5,6,L,0.21925874125874123,0.6099999999999999,0.2883636363636363,0.27610526315789474
8,15,29,1,12,20.129999999999985,19,98,44,40,37,3,20.678999999999984,2.683999999999998,4.025999999999997,2.1959999999999984,20,9,12,7,103,12,16,7,5,0.5,36,5.25,6,L,0.2007669902912621,0.22366666666666665,0.251625,0.31371428571428567
8,15,30,1,1,14.456999999999988,19,71,82,118,119,109,18.238999999999987,8.966999999999993,7.502999999999994,2.500999999999998,20,16,15,8,85,39,30,10,3,0.5,15,2.25,6,L,0.21457647058823526,0.2299230769230769,0.25009999999999993,0.2501
8,16,31,1,2,10.430999999999992,19,50,49,58,60,81,16.16499999999999,3.598999999999997,0.8539999999999996,12.38299999999999,20,11,4,16,74,16,5,56,4,0.5,27,3.75,6,L,0.21844594594594594,0.22493749999999996,0.1708,0.22112499999999996
8,16,32,1,11,32.51299999999998,19,146,65,68,67,63,32.63499999999998,1.4029999999999991,1.2809999999999993,5.611999999999996,20,7,6,16,147,8,7,24,4,1,48,4,6,L,0.22200680272108841,0.17537499999999998,0.183,0.2338333333333333
9,1,1,0,5,16.713999999999988,18,85,43,47,80,15,18.665999999999986,1.3419999999999992,19.214999999999986,698.755000000041,20,5,16,16,92,5,78,2870,5,0,19,4.75,3,L,0.20289130434782607,0.26839999999999997,0.24634615384615383,0.2434686411149824
9,1,2,0,6,12.56599999999999,17,61,2,53,12,27,12.93199999999999,3.9649999999999967,2.3179999999999983,16.28699999999999,20,6,7,14,65,10,9,63,6,0,21,5.25,3,L,0.19895384615384615,0.3964999999999999,0.25755555555555554,0.2585238095238095
9,2,3,0,9,26.29099999999998,18,123,69,5,67,71,29.462999999999976,11.467999999999991,0.427,2.3789999999999982,20,15,3,8,137,55,3,10,4,0.5,30,4.5,3,L,0.21505839416058392,0.2085090909090909,0.14233333333333334,0.2379
9,2,4,0,3,18.360999999999986,17,96,79,15,17,32,44.773999999999965,21.776999999999983,0.5489999999999999,0.183,20,19,2,2,195,115,2,2,5,0,20,5,3,L,0.22961025641025637,0.18936521739130432,0.27449999999999997,0.0915
9,3,5,1,7,44.407999999999966,18,196,3,45,73,84,44.468999999999966,3.476999999999997,2.1959999999999984,0.6709999999999998,19,13,7,2,197,15,13,2,6,0,17,4.25,3,L,0.22573096446700505,0.23179999999999998,0.16892307692307693,0.3355
9,3,6,1,3,25.07099999999998,19,109,32,18,31,120,27.14499999999998,3.537999999999997,0.7929999999999997,0.244,20,11,4,2,116,14,4,2,5,0,18,4.5,3,L,0.23400862068965517,0.25271428571428567,0.19824999999999998,0.122
9,4,7,1,15,16.774999999999988,20,86,17,22,13,16,21.044999999999984,1.9519999999999986,0.366,1.585999999999999,20,4,2,7,109,6,2,8,6,1,72,6,3,L,0.19307339449541283,0.32533333333333325,0.183,0.19824999999999998
9,4,8,1,7,12.13899999999999,19,51,1,2,4,9,12.19999999999999,2.3789999999999982,1.1589999999999994,10.613999999999992,20,10,4,13,52,10,4,39,6,1,72,6,3,L,0.23461538461538461,0.2379,0.2897499999999999,0.27215384615384614
9,5,9,1,3,39.71099999999997,14,158,29,31,34,36,41.66299999999997,2.0129999999999986,2.561999999999998,4.208999999999997,19,8,11,12,164,10,13,16,5,1,60,5,3,L,0.25404268292682924,0.2013,0.19707692307692307,0.2630625
9,5,10,1,15,23.78999999999998,19,100,17,23,24,22,24.03399999999998,1.0369999999999995,0.183,2.1959999999999984,20,4,2,6,102,4,2,8,6,1,72,6,3,L,0.23562745098039212,0.25925,0.0915,0.27449999999999997
9,6,11,1,13,26.65699999999998,19,113,115,110,19,69,28.974999999999977,3.2939999999999974,1.0369999999999995,0.7319999999999998,20,10,4,3,125,14,5,3,2,0,14,3.5,3,L,0.23179999999999998,0.23528571428571426,0.2074,0.244
9,6,12,1,3,14.151999999999989,20,83,29,32,60,3,18.055999999999987,0.244,24.64399999999998,9.088999999999993,20,2,18,16,102,2,108,36,5,0,20,5,3,L,0.17701960784313725,0.122,0.22818518518518516,0.2524722222222222
9,7,13,1,14,20.861999999999984,18,89,95,93,94,44,22.813999999999982,1.2199999999999993,4.879999999999996,2.8669999999999978,20,7,13,11,95,9,21,15,3,0.5,23,3.5,3,L,0.2401473684210526,0.13555555555555554,0.23238095238095238,0.19113333333333332
9,7,14,1,2,25.25399999999998,17,130,58,57,20,23,26.41299999999998,2.805999999999998,6.648999999999995,0.305,20,8,15,2,135,11,36,2,4,0,20,5,3,L,0.19565185185185185,0.2550909090909091,0.18469444444444444,0.1525
9,8,15,1,1,18.299999999999986,18,87,73,50,74,76,18.726999999999986,1.524999999999999,4.6969999999999965,0.061,20,2,13,1,91,3,26,1,3,0.5,22,3.25,3,L,0.20579120879120877,0.5083333333333332,0.18065384615384614,0.061
9,8,16,1,3,22.264999999999983,19,89,34,32,25,28,22.508999999999983,1.463999999999999,1.646999999999999,1.1589999999999994,20,6,7,4,91,8,9,4,5,1,60,5,3,L,0.24735164835164833,0.183,0.183,0.28974999999999995
9,9,17,1,3,9.393999999999993,17,44,32,36,33,84,12.56599999999999,1.7689999999999988,0.5489999999999999,0.061,20,8,5,1,60,8,5,1,5,0.5,33,4.5,3,L,0.20943333333333333,0.221125,0.1098,0.061
9,9,18,1,7,77.34800000000149,17,329,8,50,5,92,78.1410000000015,1.7689999999999988,4.7579999999999965,0.244,20,9,11,1,336,11,21,1,6,0,19,4.75,3,L,0.2325625,0.1608181818181818,0.22657142857142853,0.244
9,10,19,1,12,34.098999999999975,15,155,39,38,48,105,34.708999999999975,1.0369999999999995,1.8909999999999987,20.068999999999985,19,9,5,16,159,9,9,86,5,0.5,32,4.25,3,L,0.2182955974842767,0.11522222222222221,0.21011111111111108,0.23336046511627906
9,10,20,1,7,34.037999999999975,18,158,1,7,6,34,34.098999999999975,0.366,0.7319999999999998,5.123999999999996,19,2,4,10,159,2,4,16,6,0.5,41,5.75,3,L,0.2144591194968553,0.183,0.183,0.32025
9,11,21,1,1,17.323999999999987,20,96,80,78,79,51,17.628999999999987,3.0499999999999976,2.744999999999998,10.125999999999992,20,11,10,17,100,15,12,45,3,0.5,22,3.25,3,L,0.17629,0.20333333333333334,0.22874999999999998,0.2250222222222222
9,11,22,1,15,8.844999999999994,17,51,13,23,21,44,9.393999999999993,1.2809999999999993,10.857999999999992,3.1719999999999975,19,7,16,10,53,7,53,11,6,0.5,41,5.75,3,L,0.1772452830188679,0.183,0.20486792452830188,0.2883636363636363
9,12,23,1,15,7.502999999999994,13,35,19,15,23,24,12.32199999999999,3.903999999999997,1.2809999999999993,0.366,20,12,6,3,52,15,6,3,6,1,72,6,3,L,0.23696153846153845,0.26026666666666665,0.2135,0.122
9,12,24,1,2,26.59599999999998,19,119,54,53,50,38,26.77899999999998,3.781999999999997,5.367999999999996,4.330999999999997,20,11,13,12,120,18,20,20,4,0.5,29,4.25,3,L,0.2231583333333333,0.2101111111111111,0.26839999999999997,0.21655
9,13,25,1,13,60.63399999999995,18,253,120,118,114,88,61.18299999999995,2.500999999999998,0.366,2.3789999999999982,20,6,3,7,256,9,3,8,2,0.5,15,2.25,3,L,0.23899609374999997,0.27788888888888885,0.122,0.297375
9,13,26,1,7,9.332999999999993,18,53,4,12,71,42,10.064999999999992,9.027999999999993,0.488,15.249999999999988,20,14,1,15,58,32,1,72,6,0,21,5.25,3,L,0.17353448275862068,0.28212499999999996,0.488,0.21180555555555552
10,1,1,0,6,12.38299999999999,17,63,3,112,12,7,12.44399999999999,1.3419999999999992,0.488,7.746999999999994,18,3,3,16,64,4,3,37,6,0.5,38,5,6,L,0.19443749999999999,0.33549999999999985,0.16266666666666665,0.20937837837837836
10,1,2,0,2,31.048999999999975,16,121,57,58,55,49,31.292999999999974,0.122,0.183,12.99299999999999,18,1,1,16,123,1,1,53,4,1,48,4,6,L,0.25441463414634147,0.122,0.183,0.2451509433962264
10,2,3,0,7,11.223999999999991,14,52,21,14,39,98,11.467999999999991,9.515999999999993,89.67000000000291,0.061,17,15,16,1,55,31,357,1,6,0,19,4.75,6,L,0.2085090909090909,0.3069677419354838,0.2511764705882353,0.061
10,2,4,0,6,8.478999999999994,12,45,8,6,10,114,9.698999999999993,0.366,1.463999999999999,4.6969999999999965,15,1,6,10,48,1,6,16,6,0.5,38,5,6,L,0.20206249999999998,0.366,0.244,0.29356249999999995
10,3,5,0,1,18.970999999999986,15,89,76,78,97,81,21.654999999999983,1.2199999999999993,2.1959999999999984,0.427,20,5,7,2,100,5,8,2,3,0.5,20,2.75,6,L,0.21655,0.244,0.27449999999999997,0.2135
10,3,6,0,7,12.26099999999999,14,67,13,23,21,56,13.785999999999989,6.343999999999995,1.463999999999999,0.488,18,13,4,2,73,19,4,2,6,0.5,40,5.5,6,L,0.18884931506849315,0.33389473684210513,0.36599999999999994,0.244
10,4,7,0,10,32.32999999999998,18,162,91,93,95,109,34.952999999999975,4.7579999999999965,10.491999999999992,4.269999999999997,20,9,15,13,172,14,38,16,3,0.5,20,2.75,6,L,0.20321511627906974,0.3398571428571428,0.2761052631578947,0.266875
10,4,8,0,9,35.623999999999974,16,140,68,62,41,21,35.684999999999974,0.488,8.234999999999994,9.393999999999993,17,3,16,15,141,3,31,34,4,0,19,4.75,6,L,0.2530851063829787,0.16266666666666665,0.26564516129032256,0.27629411764705875
10,5,9,0,7,20.861999999999984,15,84,17,21,98,16,21.105999999999984,7.380999999999994,1.7079999999999989,2.561999999999998,17,16,6,10,86,40,7,11,6,0.5,38,5,6,L,0.24541860465116275,0.184525,0.24399999999999997,0.2329090909090909
10,5,10,0,6,15.188999999999988,20,70,2,11,115,12,15.249999999999988,8.844999999999994,0.183,1.1589999999999994,20,18,1,4,71,45,1,4,6,0.5,38,5,6,L,0.2147887323943662,0.19655555555555554,0.183,0.28974999999999995
10,6,11,1,7,16.835999999999988,16,81,8,3,1,12,16.896999999999988,2.9279999999999977,3.537999999999997,0.6709999999999998,17,10,8,3,82,11,8,3,6,1,72,6,6,L,0.2060609756097561,0.2661818181818182,0.4422499999999999,0.22366666666666665
10,6,12,1,3,40.68699999999997,14,175,36,29,25,88,44.163999999999966,0.244,0.183,2.561999999999998,20,2,2,7,192,2,2,10,5,0.5,33,4.5,6,L,0.2300208333333333,0.122,0.0915,0.2562
10,7,13,1,3,36.11199999999997,19,158,33,31,15,22,38.49099999999997,0.122,4.147999999999997,1.1589999999999994,20,1,11,6,173,1,17,6,5,0,22,5.5,6,L,0.22249132947976877,0.122,0.244,0.19316666666666665
10,7,14,1,11,27.754999999999978,20,129,66,42,10,108,30.743999999999975,9.149999999999993,10.796999999999992,0.366,20,16,15,2,143,39,41,2,4,0,17,4.25,6,L,0.21499300699300697,0.2346153846153846,0.2633414634146341,0.183
10,8,15,1,7,21.166999999999984,20,89,9,12,3,8,21.898999999999983,2.1349999999999985,0.5489999999999999,1.585999999999999,20,6,5,4,93,6,5,5,6,1,72,6,6,L,0.23547311827956988,0.3558333333333332,0.1098,0.3172
10,8,16,1,15,18.787999999999986,19,85,17,13,19,20,19.458999999999985,3.842999999999997,0.8539999999999996,1.646999999999999,20,8,5,5,89,13,5,6,6,1,72,6,6,L,0.2186404494382022,0.29561538461538456,0.1708,0.27449999999999997
10,9,17,1,1,11.284999999999991,20,55,12,1,2,11,372.09999999998536,193.61400000001493,268.70500000001766,148.90100000000976,20,19,18,17,1559,773,1081,634,3,1,72,6,6,L,0.23867864015394483,0.2504708926261319,0.24857076780758555,0.23485962145110406
10,9,18,1,2,25.00999999999998,18,107,57,58,93,105,30.255999999999975,4.574999999999997,2.8669999999999978,4.086999999999997,20,11,7,9,126,22,11,10,4,0,13,3.25,6,L,0.2401269841269841,0.20795454545454542,0.2606363636363636,0.4086999999999999
10,10,19,1,13,10.674999999999992,17,54,119,111,90,117,10.735999999999992,8.783999999999994,4.940999999999996,4.513999999999997,18,15,11,11,55,34,17,18,2,0.5,15,2.25,6,L,0.19519999999999998,0.25835294117647056,0.29064705882352937,0.25077777777777777
10,10,20,1,8,10.125999999999992,19,54,13,82,107,15,176.04600000001173,2.561999999999998,1.524999999999999,0.061,20,10,4,1,740,13,5,1,2,0,17,4.25,6,L,0.2379,0.19707692307692307,0.3049999999999999,0.061
10,11,21,1,3,24.70499999999998,14,129,36,107,32,58,27.937999999999978,4.025999999999997,1.2199999999999993,5.855999999999995,20,12,6,14,145,20,6,24,5,0,16,4,6,L,0.1926758620689655,0.2013,0.2033333333333333,0.244
10,11,22,1,15,17.933999999999987,15,89,14,18,22,48,17.994999999999987,6.160999999999995,4.147999999999997,0.183,16,13,11,1,90,31,15,1,6,0.5,41,5.75,6,L,0.19994444444444442,0.19874193548387095,0.2765333333333333,0.183
10,12,23,1,11,28.669999999999977,10,132,64,69,71,105,29.889999999999976,2.744999999999998,4.391999999999997,2.9889999999999977,14,10,15,7,136,13,24,11,4,0.5,26,3.5,6,L,0.21977941176470586,0.21115384615384614,0.183,0.27172727272727265
10,12,24,1,7,13.48099999999999,20,63,2,5,3,11,13.724999999999989,0.8539999999999996,0.427,0.122,20,5,2,1,65,6,2,1,6,1,72,6,6,L,0.21115384615384614,0.14233333333333334,0.2135,0.122
11,1,1,0,2,17.994999999999987,16,76,49,59,53,77,19.946999999999985,2.3789999999999982,1.0369999999999995,18.726999999999986,20,8,6,17,88,10,6,79,4,0.5,27,3.75,6,L,0.22667045454545454,0.2379,0.17283333333333334,0.2370506329113924
11,1,2,0,7,8.661999999999994,15,42,16,15,21,23,9.576999999999993,2.744999999999998,0.061,1.2809999999999993,20,6,1,4,49,10,1,5,6,1,72,6,6,L,0.19544897959183674,0.27449999999999997,0.061,0.2562
11,2,3,0,6,17.689999999999987,15,84,4,12,10,9,17.750999999999987,1.0369999999999995,0.7929999999999997,8.417999999999994,16,6,4,17,85,6,5,44,6,1,72,6,6,L,0.20883529411764704,0.17283333333333334,0.1586,0.1913181818181818
11,2,4,0,7,25.61999999999998,14,131,15,22,16,52,25.68099999999998,1.524999999999999,2.3789999999999982,6.099999999999995,15,4,9,14,132,4,9,31,6,0.5,40,5.5,6,L,0.19455303030303028,0.38124999999999987,0.2643333333333333,0.19677419354838707
11,3,5,0,7,18.909999999999986,16,80,16,23,20,110,18.970999999999986,9.332999999999993,0.7319999999999998,5.611999999999996,17,16,5,12,81,37,5,21,6,0.5,38,5,6,L,0.23420987654320985,0.2522432432432432,0.1464,0.2672380952380952
11,3,6,0,6,21.288999999999984,18,101,5,2,102,10,22.020999999999983,3.842999999999997,0.7929999999999997,1.1589999999999994,20,9,4,4,106,16,4,4,6,0.5,38,5,6,L,0.2077452830188679,0.2401875,0.19824999999999998,0.28974999999999995
11,4,7,0,7,14.883999999999988,15,71,13,23,21,74,15.737999999999987,4.086999999999997,3.9649999999999967,0.5489999999999999,19,9,8,2,75,14,12,2,6,0.5,39,5.25,6,L,0.20983999999999997,0.29192857142857137,0.3304166666666666,0.27449999999999997
11,4,8,0,6,14.639999999999988,15,73,3,8,90,9,18.177999999999987,2.439999999999998,15.066999999999988,3.1109999999999975,20,8,17,10,97,9,59,11,6,0.5,39,5.25,6,L,0.1874020618556701,0.2711111111111111,0.25537288135593217,0.2828181818181818
11,5,9,0,5,15.676999999999987,18,79,38,91,110,88,16.10399999999999,15.432999999999987,0.9759999999999995,9.820999999999993,20,17,4,16,81,63,5,45,5,0,13,3.25,6,L,0.1988148148148148,0.24496825396825395,0.19519999999999998,0.21824444444444444
11,5,10,0,9,16.713999999999988,18,76,66,63,61,68,17.567999999999987,0.244,4.452999999999997,1.8299999999999987,20,2,14,6,80,2,18,6,4,1,48,4,6,L,0.21959999999999996,0.122,0.24738888888888888,0.30499999999999994
11,6,11,1,15,17.811999999999987,17,80,21,15,16,63,18.604999999999986,8.356999999999994,1.524999999999999,0.122,19,12,4,2,83,29,4,2,6,0.5,40,5.5,6,L,0.22415662650602408,0.28817241379310343,0.3812499999999999,0.061
11,6,12,1,1,22.386999999999983,18,106,80,74,83,11,23.97299999999998,0.7319999999999998,2.500999999999998,23.78999999999998,20,4,9,17,116,4,12,106,3,0.5,24,3.75,6,L,0.20666379310344826,0.183,0.20841666666666667,0.2244339622641509
11,7,13,1,3,28.059999999999977,19,119,29,13,108,15,29.035999999999976,7.563999999999994,3.781999999999997,6.8929999999999945,20,15,12,16,128,27,17,33,5,0,19,4.75,6,L,0.22684374999999998,0.28014814814814815,0.2224705882352941,0.20887878787878786
11,7,14,1,2,19.458999999999985,18,89,50,58,55,53,20.678999999999984,0.305,1.0369999999999995,1.2199999999999993,20,1,4,6,92,1,4,7,4,1,48,4,6,L,0.22477173913043477,0.305,0.25925,0.17428571428571427
11,8,15,1,14,60.75599999999995,16,238,40,17,94,13,66.42899999999995,4.7579999999999965,3.842999999999997,16.469999999999988,20,13,14,17,261,15,16,61,3,0,20,5,6,L,0.2545172413793103,0.3171999999999999,0.24018749999999997,0.26999999999999996
11,8,16,1,7,22.325999999999983,18,92,2,9,80,112,22.508999999999983,1.3419999999999992,1.646999999999999,1.1589999999999994,20,3,7,4,95,5,9,4,6,0,17,4.25,6,L,0.23693684210526314,0.26839999999999997,0.183,0.28974999999999984
11,9,17,1,11,28.364999999999977,20,127,64,66,63,40,30.804999999999975,3.720999999999997,4.330999999999997,0.488,20,14,13,1,140,19,18,1,4,0.5,29,4.25,6,L,0.22003571428571428,0.19584210526315787,0.24061111111111108,0.488
11,9,18,1,3,24.52199999999998,13,91,19,18,32,54,44.834999999999965,3.659999999999997,0.061,0.6099999999999999,20,13,1,2,159,19,1,2,5,0,21,5.25,6,L,0.28198113207547165,0.19263157894736843,0.061,0.305
11,10,19,1,8,20.556999999999984,16,97,108,104,102,22,23.179999999999982,1.3419999999999992,4.147999999999997,2.1349999999999985,20,6,10,7,109,6,16,11,2,0.5,18,3,6,L,0.21266055045871557,0.22366666666666665,0.2592499999999999,0.19409090909090906
11,10,20,1,3,18.360999999999986,18,80,26,27,30,31,19.214999999999986,1.0369999999999995,1.646999999999999,6.770999999999995,20,5,7,13,82,6,9,31,5,1,60,5,6,L,0.23432926829268289,0.17283333333333334,0.18299999999999997,0.21841935483870964
11,11,21,1,2,22.874999999999982,18,104,54,50,8,41,23.362999999999982,0.6099999999999999,13.54199999999999,1.4029999999999991,20,2,17,3,106,2,63,3,4,0,19,4.75,6,L,0.22040566037735848,0.305,0.21495238095238095,0.46766666666666656
11,11,22,1,13,33.793999999999976,20,154,116,120,112,70,33.976999999999975,2.622999999999998,1.3419999999999992,1.0979999999999994,20,12,4,3,157,14,4,3,2,0.5,16,2.5,6,L,0.2164140127388535,0.18735714285714286,0.33549999999999996,0.366
11,12,23,1,7,14.029999999999989,19,66,7,120,2,8,14.517999999999988,8.356999999999994,9.698999999999993,0.427,20,13,17,3,71,25,44,3,6,0.5,38,5,6,L,0.20447887323943661,0.3342799999999999,0.22043181818181817,0.14233333333333334
11,12,24,1,8,8.539999999999994,18,47,37,97,93,105,20.434999999999985,0.8539999999999996,1.7079999999999989,0.488,20,4,5,3,95,4,8,3,2,0,12,3,6,L,0.21510526315789474,0.21349999999999997,0.2135,0.16266666666666665
11,13,25,1,1,48.06799999999996,16,211,83,77,38,12,48.18999999999996,1.0369999999999995,4.330999999999997,1.7079999999999989,17,6,15,4,212,7,19,4,3,0,17,4.25,6,L,0.22731132075471694,0.14814285714285713,0.22794736842105262,0.42699999999999994
11,13,26,1,3,25.86399999999998,20,125,25,36,95,96,26.77899999999998,5.855999999999995,0.7319999999999998,6.953999999999994,20,13,1,14,130,22,1,33,5,0,16,4,6,L,0.2059923076923077,0.26618181818181813,0.7319999999999998,0.2107272727272727
11,14,27,1,13,21.898999999999983,20,117,113,115,114,57,24.33899999999998,2.1349999999999985,3.781999999999997,4.208999999999997,20,11,10,13,130,13,15,18,2,0.5,16,2.5,6,L,0.1872230769230769,0.16423076923076924,0.2521333333333333,0.2338333333333333
11,14,28,1,15,24.27799999999998,20,113,19,18,21,33,26.10799999999998,0.488,0.244,3.903999999999997,20,2,1,10,122,2,1,17,6,0.5,41,5.75,6,L,0.21399999999999997,0.244,0.244,0.22964705882352937
11,15,29,1,7,13.907999999999989,15,55,1,7,28,32,13.968999999999989,3.1109999999999975,2.0739999999999985,4.330999999999997,16,9,6,10,56,13,7,18,6,0,22,5.5,6,L,0.24944642857142854,0.23930769230769228,0.29628571428571426,0.2406111111111111
11,15,30,1,12,24.70499999999998,20,104,41,110,119,24,31.048999999999975,5.367999999999996,1.8299999999999987,10.491999999999992,20,13,4,17,134,20,4,50,5,0,15,3.75,6,L,0.23170895522388057,0.26839999999999997,0.4574999999999999,0.20984
11,16,31,1,15,11.71199999999999,20,67,22,18,14,15,11.77299999999999,0.122,1.7689999999999988,0.6099999999999999,20,1,9,5,68,1,10,5,6,1,72,6,6,L,0.17313235294117646,0.122,0.1769,0.122
11,16,32,1,13,36.11199999999997,17,167,119,117,68,36,36.72199999999997,3.720999999999997,2.561999999999998,1.2809999999999993,20,11,8,5,171,17,11,5,2,0,13,3.25,6,L,0.21474853801169588,0.21888235294117644,0.2329090909090909,0.2562
12,1,1,0,6,19.641999999999985,19,92,2,106,11,72,19.702999999999985,8.051999999999994,0.305,10.064999999999992,20,13,2,14,93,26,2,49,6,0,18,4.5,4,L,0.21186021505376343,0.30969230769230766,0.1525,0.20540816326530612
12,1,2,0,5,12.74899999999999,19,65,19,44,114,96,416.2029999999704,0.6709999999999998,0.061,0.061,20,4,1,1,1736,6,1,1,5,0,16,4,4,L,0.2397482718894009,0.11183333333333334,0.061,0.061
12,2,3,0,3,13.785999999999989,16,55,28,33,26,60,14.822999999999988,0.6709999999999998,5.428999999999996,26.59599999999998,20,4,11,16,60,4,18,106,5,0.5,34,4.75,4,L,0.24704999999999996,0.16775,0.30161111111111105,0.25090566037735845
12,2,4,0,9,24.33899999999998,20,110,1,69,68,41,142.25200000000615,0.305,0.061,1.7079999999999989,20,2,1,6,601,2,1,6,4,0,19,4.75,4,L,0.23669217970049916,0.1525,0.061,0.2846666666666666
12,3,5,0,9,17.506999999999987,17,93,63,47,22,21,19.641999999999985,25.92499999999998,92.53700000000325,103.45600000000451,20,19,18,17,101,100,389,419,4,0,21,5.25,4,L,0.19447524752475245,0.25925,0.2378843187660668,0.24691169451073985
12,3,6,0,1,11.284999999999991,20,47,77,119,31,2,14.090999999999989,36.96599999999997,3.476999999999997,26.59599999999998,20,19,10,17,58,126,16,112,3,0,16,4,4,L,0.24294827586206894,0.29338095238095235,0.2173125,0.23746428571428568
12,4,7,1,7,13.602999999999989,17,55,12,7,8,10,17.262999999999987,4.574999999999997,2.1959999999999984,8.966999999999993,20,14,9,12,69,21,10,29,6,1,72,6,4,L,0.25018840579710144,0.21785714285714283,0.21959999999999996,0.30920689655172406
12,4,8,1,12,32.939999999999976,20,141,42,64,17,85,33.000999999999976,10.430999999999992,4.818999999999996,2.500999999999998,20,16,13,10,142,42,24,13,5,0,18,4.5,4,L,0.23240140845070423,0.24835714285714283,0.20079166666666665,0.19238461538461538
12,5,9,1,2,20.190999999999985,19,98,50,59,56,94,22.935999999999982,2.0129999999999986,5.611999999999996,8.234999999999994,20,7,14,14,105,8,28,36,4,0.5,27,3.75,4,L,0.2184380952380952,0.251625,0.20042857142857143,0.22874999999999998
12,5,10,1,8,24.46099999999998,20,107,99,107,73,18,25.61999999999998,5.245999999999996,1.585999999999999,2.0739999999999985,20,14,7,7,111,26,8,8,2,0,13,3.25,4,L,0.23081081081081078,0.20176923076923076,0.19824999999999998,0.25925
12,6,11,1,1,24.76599999999998,20,128,82,76,45,18,25.61999999999998,2.1349999999999985,5.123999999999996,0.244,20,9,12,2,130,12,25,2,3,0,17,4.25,4,L,0.19707692307692307,0.17791666666666667,0.20495999999999998,0.122
12,6,12,1,2,20.068999999999985,19,99,2,3,103,88,72.71199999999995,0.183,0.305,0.061,20,1,2,1,312,1,2,1,4,0,17,4.25,4,L,0.233051282051282,0.183,0.1525,0.061
12,7,13,1,12,42.94399999999997,19,192,43,84,79,18,45.627999999999965,1.3419999999999992,7.014999999999994,7.624999999999994,20,6,13,16,209,6,27,31,5,0,17,4.25,4,L,0.21831578947368424,0.22366666666666665,0.2598148148148148,0.24596774193548385
12,7,14,1,7,27.754999999999978,17,118,4,11,12,116,28.120999999999977,0.061,3.1719999999999975,8.417999999999994,20,1,10,14,121,1,16,36,6,0.5,38,5,4,L,0.23240495867768593,0.061,0.19825,0.2338333333333333
12,8,15,1,12,18.482999999999986,19,92,44,39,108,15,19.092999999999986,8.966999999999993,1.2199999999999993,2.9279999999999977,20,15,5,9,95,31,6,12,5,0,18,4.5,4,L,0.20097894736842103,0.28925806451612895,0.20333333333333334,0.24399999999999997
12,8,16,1,3,23.66799999999998,14,115,32,74,64,83,23.91199999999998,14.212999999999989,0.7319999999999998,4.330999999999997,16,16,2,14,117,59,3,23,5,0,15,3.75,4,L,0.20437606837606836,0.24089830508474572,0.244,0.18830434782608693
12,9,17,1,13,28.181999999999977,20,127,115,56,110,81,28.303999999999977,13.846999999999989,0.305,0.183,20,17,2,1,128,58,2,1,2,0,11,2.75,4,L,0.221125,0.2387413793103448,0.1525,0.183
12,9,18,1,14,27.876999999999978,20,141,92,85,7,6,31.353999999999974,2.0739999999999985,3.598999999999997,0.9759999999999995,20,8,11,4,159,12,14,4,3,0,18,4.5,4,L,0.1971949685534591,0.1728333333333333,0.2570714285714285,0.24399999999999994
12,10,19,1,7,10.918999999999992,18,58,3,8,96,9,11.467999999999991,2.744999999999998,3.4159999999999973,0.122,20,10,10,1,63,13,17,1,6,0.5,39,5.25,4,L,0.18203174603174602,0.21115384615384614,0.2009411764705882,0.122
12,10,20,1,1,24.46099999999998,20,116,83,80,77,69,25.13199999999998,1.0369999999999995,0.183,5.611999999999996,20,4,1,13,119,4,1,24,3,0.5,22,3.25,4,L,0.21119327731092435,0.25925,0.183,0.23383333333333328
12,11,21,1,3,20.495999999999984,15,88,29,28,33,22,22.142999999999983,1.4029999999999991,2.9889999999999977,8.051999999999994,20,5,9,14,96,5,12,31,5,0.5,36,5.25,4,L,0.23065624999999998,0.28059999999999996,0.24908333333333332,0.2597419354838709
12,11,22,1,7,15.676999999999987,20,87,3,8,9,12,18.299999999999986,3.842999999999997,0.8539999999999996,0.122,20,12,4,1,96,17,5,1,6,1,72,6,4,L,0.190625,0.22605882352941173,0.1708,0.122
12,12,23,1,3,27.815999999999978,14,132,34,73,28,25,32.939999999999976,0.366,2.0129999999999986,0.183,20,1,8,1,146,1,9,1,5,0.5,33,4.5,4,L,0.22561643835616438,0.366,0.22366666666666665,0.183
12,12,24,1,14,21.471999999999984,18,105,89,103,18,45,22.508999999999983,10.613999999999992,1.8299999999999987,8.661999999999994,20,14,7,14,109,38,8,37,3,0,16,4,4,L,0.2065045871559633,0.2793157894736842,0.22875,0.2341081081081081
12,13,25,1,1,33.671999999999976,18,161,75,67,84,109,38.61299999999997,16.713999999999988,1.585999999999999,4.818999999999996,20,17,6,12,190,68,6,21,3,0,12,3,4,L,0.20322631578947367,0.2457941176470588,0.2643333333333333,0.22947619047619044
12,13,26,1,12,20.983999999999984,20,99,46,39,58,91,21.044999999999984,6.8929999999999945,5.428999999999996,0.488,20,14,12,3,100,21,19,3,5,0,17,4.25,4,L,0.21044999999999997,0.32823809523809516,0.2857368421052631,0.16266666666666665
13,1,1,0,2,9.027999999999993,13,46,59,60,16,96,13.297999999999991,2.1959999999999984,130.05200000000758,4.330999999999997,20,8,18,16,66,11,531,21,4,0,17,4.25,5,L,0.20148484848484846,0.19963636363636364,0.24491902071563088,0.20623809523809522
13,1,2,0,6,15.554999999999987,18,80,3,8,9,98,16.28699999999999,1.2809999999999993,9.454999999999993,0.183,20,7,15,1,83,7,33,1,6,0.5,38,5,5,L,0.1962289156626506,0.183,0.28651515151515144,0.183
13,2,3,0,6,18.482999999999986,18,82,2,11,88,7,18.543999999999986,1.4029999999999991,4.940999999999996,2.622999999999998,19,7,13,10,83,8,26,11,6,0.5,39,5.25,5,L,0.22342168674698792,0.175375,0.19003846153846152,0.23845454545454545
13,2,4,0,1,36.35599999999997,18,153,74,84,81,78,44.102999999999966,1.0369999999999995,0.122,3.903999999999997,20,4,2,10,183,4,2,14,3,1,36,3,5,L,0.241,0.25925,0.061,0.2788571428571428
13,3,5,0,7,32.32999999999998,19,140,16,14,56,13,32.57399999999998,0.9759999999999995,13.846999999999989,0.6099999999999999,20,6,17,4,142,8,44,5,6,0.5,40,5.5,5,L,0.2293943661971831,0.122,0.3147045454545454,0.122
13,3,6,0,6,15.249999999999988,19,65,5,1,7,101,15.493999999999987,5.7339999999999955,1.7079999999999989,2.561999999999998,20,13,5,10,67,25,6,15,6,0.5,38,5,5,L,0.23125373134328356,0.22935999999999998,0.2846666666666667,0.1708
13,4,7,0,7,21.959999999999983,13,99,20,16,18,42,22.020999999999983,1.8299999999999987,13.35899999999999,26.41299999999998,14,3,17,16,100,3,67,116,6,0.5,41,5.75,5,L,0.22020999999999996,0.6099999999999998,0.1993880597014925,0.22769827586206895
13,4,8,0,3,26.16899999999998,12,109,30,36,33,34,26.29099999999998,0.488,1.524999999999999,0.7929999999999997,13,3,8,5,110,3,9,5,5,1,60,5,5,L,0.2390090909090909,0.16266666666666665,0.16944444444444445,0.1586
13,5,9,1,12,20.861999999999984,19,112,40,38,67,69,21.044999999999984,5.916999999999995,2.3789999999999982,8.417999999999994,20,12,7,15,113,26,9,38,5,0,18,4.5,5,L,0.18623893805309732,0.22757692307692307,0.2643333333333333,0.22152631578947365
13,5,10,1,2,21.471999999999984,18,89,2,60,102,49,57.58399999999996,0.183,0.122,0.488,20,2,1,5,223,2,1,5,4,0,16,4,5,L,0.25822421524663675,0.0915,0.122,0.09759999999999999
13,6,11,1,7,32.75699999999998,17,137,2,95,43,69,32.81799999999998,4.574999999999997,1.3419999999999992,1.1589999999999994,18,13,3,3,138,26,3,3,6,0,18,4.5,5,L,0.23781159420289852,0.17596153846153845,0.4473333333333332,0.3863333333333333
13,6,12,1,15,21.227999999999984,10,90,24,16,22,49,23.97299999999998,6.587999999999995,0.427,7.197999999999994,19,15,4,16,103,28,4,30,6,0.5,40,5.5,5,L,0.23274757281553396,0.23528571428571426,0.10675,0.2399333333333333
13,7,13,1,3,25.74199999999998,20,132,26,25,4,33,25.86399999999998,0.305,8.478999999999994,0.366,20,3,18,3,133,4,39,3,5,0.5,36,5.25,5,L,0.19446616541353381,0.07625,0.2174102564102564,0.122
13,7,14,1,8,52.03299999999996,19,224,106,48,107,96,54.594999999999956,0.6099999999999999,1.1589999999999994,2.805999999999998,20,2,7,11,236,2,7,21,2,0,12,3,5,L,0.23133474576271187,0.305,0.16557142857142856,0.1336190476190476
13,8,15,1,3,12.19999999999999,18,57,3,86,53,12,37.20999999999997,0.244,0.244,0.061,20,1,2,1,149,1,2,1,5,0,19,4.75,5,L,0.24973154362416103,0.244,0.122,0.061
13,8,16,1,8,21.715999999999983,20,89,97,107,74,20,22.203999999999983,9.088999999999993,4.208999999999997,0.8539999999999996,20,16,12,5,93,37,16,6,2,0,13,3.25,5,L,0.23875268817204298,0.2456486486486486,0.2630625,0.14233333333333334
13,9,17,1,3,12.74899999999999,17,68,34,33,36,35,13.724999999999989,1.0979999999999994,0.9149999999999996,0.9759999999999995,20,5,5,4,72,5,5,4,5,1,60,5,5,L,0.190625,0.2196,0.183,0.244
13,9,18,1,1,20.983999999999984,20,101,74,78,5,116,21.654999999999983,4.940999999999996,7.502999999999994,1.2809999999999993,20,13,12,2,104,24,23,2,3,0,14,3.5,5,L,0.20822115384615383,0.20587499999999995,0.3262173913043478,0.6404999999999998
13,10,19,1,1,21.471999999999984,14,88,78,79,77,82,22.325999999999983,0.305,2.1349999999999985,4.879999999999996,16,2,11,16,90,3,15,24,3,1,36,3,5,L,0.24806666666666663,0.10166666666666667,0.14233333333333334,0.20333333333333334
13,10,20,1,7,12.19999999999999,15,59,4,47,39,93,12.26099999999999,9.027999999999993,0.305,0.6709999999999998,16,17,1,4,60,38,1,4,6,0,19,4.75,5,L,0.20434999999999998,0.23757894736842103,0.305,0.16775
13,11,21,1,15,18.116999999999987,20,86,15,24,16,22,19.214999999999986,0.488,0.122,11.83399999999999,20,2,1,15,92,2,1,39,6,1,72,6,5,L,0.2088586956521739,0.244,0.122,0.3034358974358974
13,11,22,1,11,28.791999999999977,20,127,70,71,61,68,30.682999999999975,0.366,1.1589999999999994,3.842999999999997,20,2,5,10,133,2,5,14,4,1,48,4,5,L,0.23069924812030074,0.183,0.2318,0.27449999999999997
13,12,23,1,13,23.60699999999998,20,106,111,59,112,41,26.83999999999998,3.903999999999997,4.635999999999997,2.9889999999999977,20,13,13,9,125,18,16,13,2,0,13,3.25,5,L,0.21472,0.21688888888888888,0.28974999999999995,0.2299230769230769
13,12,24,1,3,20.434999999999985,20,87,27,34,35,13,21.166999999999984,0.183,0.305,12.32199999999999,20,2,2,16,89,2,2,55,5,0.5,36,5.25,5,L,0.23783146067415728,0.0915,0.1525,0.22403636363636362
13,13,25,1,13,24.33899999999998,15,105,120,44,111,51,29.340999999999976,2.9279999999999977,0.8539999999999996,1.585999999999999,20,10,4,7,122,12,5,9,2,0,13,3.25,5,L,0.24049999999999996,0.244,0.1708,0.17622222222222222
13,13,26,1,15,13.846999999999989,19,58,23,17,21,24,15.188999999999988,2.744999999999998,0.488,2.8669999999999978,20,9,2,8,65,12,2,10,6,1,72,6,5,L,0.23367692307692306,0.22874999999999998,0.244,0.28669999999999995
13,14,27,1,11,36.78299999999997,18,154,61,72,63,66,38.79599999999997,3.1109999999999975,0.366,0.244,20,9,2,2,162,10,2,3,4,1,48,4,5,L,0.23948148148148146,0.31109999999999993,0.183,0.08133333333333333
13,14,28,1,15,23.97299999999998,17,115,18,16,79,21,24.09499999999998,5.306999999999996,0.183,0.9759999999999995,18,11,1,5,116,22,1,5,6,0.5,39,5.25,5,L,0.2077155172413793,0.2412272727272727,0.183,0.19519999999999998
13,15,29,1,7,12.38299999999999,12,56,7,4,9,86,12.44399999999999,11.77299999999999,1.3419999999999992,0.183,13,19,2,2,57,44,2,2,6,0.5,39,5.25,5,L,0.21831578947368419,0.26756818181818176,0.6709999999999996,0.0915
13,15,30,1,11,18.787999999999986,19,86,63,65,64,117,19.519999999999985,1.463999999999999,6.648999999999995,5.489999999999996,20,5,15,12,91,5,24,23,4,0.5,26,3.5,5,L,0.2145054945054945,0.2928,0.27704166666666663,0.23869565217391303
13,16,31,1,15,15.127999999999988,19,80,13,23,21,19,15.432999999999987,0.305,1.0369999999999995,3.659999999999997,20,3,7,10,83,3,7,19,6,1,72,6,5,L,0.18593975903614457,0.10166666666666667,0.14814285714285713,0.1926315789473684
13,16,32,1,11,18.665999999999986,20,95,69,3,118,93,20.007999999999985,82.41100000000208,1.8909999999999987,0.122,20,19,6,1,105,335,6,1,4,0,15,3.75,5,L,0.19055238095238095,0.24600298507462684,0.31516666666666665,0.122
14,1,1,0,9,63.19599999999995,18,261,69,75,67,73,63.31799999999995,1.7689999999999988,1.0369999999999995,4.208999999999997,19,6,5,12,262,8,5,23,4,0,14,3.5,6,L,0.2416717557251908,0.22112499999999996,0.20739999999999997,0.183
14,1,2,0,6,11.83399999999999,17,63,10,91,2,3,19.275999999999986,0.183,1.7689999999999988,0.305,20,3,3,2,92,3,4,2,6,0.5,39,5.25,6,L,0.20952173913043476,0.061,0.4422499999999999,0.1525
14,2,3,0,6,19.641999999999985,17,81,5,10,6,113,20.495999999999984,4.574999999999997,0.488,5.367999999999996,19,14,2,11,83,20,2,20,6,0.5,38,5,6,L,0.24693975903614454,0.22874999999999998,0.244,0.26839999999999997
14,2,4,0,7,25.43699999999998,20,120,16,70,21,45,25.49799999999998,5.550999999999996,4.513999999999997,31.170999999999975,20,11,10,15,121,22,20,138,6,0,21,5.25,6,L,0.2107272727272727,0.25231818181818183,0.22569999999999998,0.22587681159420286
14,3,5,0,5,26.96199999999998,18,111,46,47,37,24,27.205999999999978,0.122,2.683999999999998,11.95599999999999,19,1,10,17,112,1,12,46,5,0.5,36,5.25,6,L,0.24291071428571426,0.122,0.22366666666666665,0.25991304347826083
14,3,6,0,6,33.244999999999976,20,149,1,67,109,118,33.305999999999976,6.160999999999995,2.805999999999998,2.439999999999998,20,14,8,7,150,29,11,11,6,0,14,3.5,6,L,0.22203999999999996,0.21244827586206896,0.2550909090909091,0.2218181818181818
14,4,7,0,7,14.456999999999988,18,72,17,19,20,21,14.517999999999988,8.661999999999994,2.0739999999999985,1.0979999999999994,19,15,7,4,73,32,8,5,6,1,72,6,6,L,0.1988767123287671,0.27068749999999997,0.25925,0.21959999999999996
14,4,8,0,6,20.312999999999985,20,97,4,3,7,37,22.386999999999983,8.905999999999993,2.561999999999998,0.183,20,15,11,1,107,45,12,1,6,0.5,41,5.75,6,L,0.20922429906542056,0.1979111111111111,0.21349999999999997,0.183
14,5,9,0,6,20.983999999999984,19,102,10,88,58,95,21.776999999999983,4.940999999999996,9.698999999999993,0.488,20,11,16,5,104,24,46,5,6,0,16,4,6,L,0.20939423076923075,0.205875,0.2108478260869565,0.09759999999999999
14,5,10,0,7,18.848999999999986,19,94,18,14,19,22,20.434999999999985,4.879999999999996,1.9519999999999986,0.366,20,13,5,2,101,22,5,2,6,1,72,6,6,L,0.2023267326732673,0.2218181818181818,0.3903999999999999,0.183
14,6,11,1,15,30.255999999999975,20,149,111,19,51,17,36.96599999999997,0.244,1.0369999999999995,1.0979999999999994,20,3,4,5,172,3,4,5,6,0,18,4.5,6,L,0.21491860465116278,0.08133333333333333,0.2592499999999999,0.2196
14,6,12,1,7,12.19999999999999,17,49,6,5,11,81,12.26099999999999,2.0129999999999986,3.2329999999999974,1.585999999999999,18,7,11,2,50,8,13,3,6,0.5,39,5.25,6,L,0.24521999999999997,0.251625,0.24869230769230766,0.5286666666666664
14,7,13,1,7,19.397999999999985,18,101,7,9,3,60,19.458999999999985,2.683999999999998,3.659999999999997,0.7929999999999997,19,9,8,3,102,11,18,4,6,0.5,40,5.5,6,L,0.19077450980392155,0.244,0.2033333333333333,0.19824999999999998
14,7,14,1,3,17.689999999999987,18,84,26,35,31,27,18.177999999999987,0.427,1.7079999999999989,0.427,20,2,7,2,89,2,7,2,5,1,60,5,6,L,0.20424719101123595,0.2135,0.244,0.2135
14,8,15,1,1,22.081999999999983,18,92,75,79,77,101,29.706999999999976,0.305,0.8539999999999996,1.463999999999999,20,3,7,5,122,3,8,5,3,0.5,20,2.75,6,L,0.24349999999999997,0.10166666666666667,0.10675,0.29279999999999995
14,8,16,1,15,11.040999999999991,18,57,17,24,109,29,13.17599999999999,1.9519999999999986,7.746999999999994,43.24899999999997,20,7,13,15,67,7,32,201,6,0,19,4.75,6,L,0.19665671641791044,0.27885714285714286,0.24209375,0.2151691542288557
14,9,17,1,7,16.530999999999988,19,77,3,11,7,66,16.591999999999988,4.330999999999997,2.744999999999998,0.7929999999999997,20,10,11,4,78,14,15,5,6,0.5,40,5.5,6,L,0.2127179487179487,0.3093571428571428,0.183,0.1586
14,9,18,1,3,55.265999999999956,18,235,86,34,36,22,59.96299999999995,0.122,2.9279999999999977,0.6709999999999998,20,1,9,4,264,1,13,4,5,0,19,4.75,6,L,0.22713257575757573,0.122,0.2252307692307692,0.16775
14,10,19,1,12,16.16499999999999,16,82,47,38,116,73,16.530999999999988,1.2809999999999993,7.990999999999993,0.427,18,6,15,5,84,6,30,5,5,0,15,3.75,6,L,0.19679761904761905,0.2135,0.26636666666666664,0.0854
14,10,20,1,3,19.275999999999986,19,99,36,26,14,56,19.336999999999986,2.3179999999999983,7.746999999999994,7.624999999999994,20,8,16,14,100,8,30,35,5,0,20,5,6,L,0.19337,0.28974999999999995,0.2582333333333333,0.21785714285714283
14,11,21,1,8,18.726999999999986,20,82,100,103,102,76,20.373999999999985,0.6709999999999998,0.122,4.147999999999997,20,5,2,10,90,5,2,18,2,0.5,15,2.25,6,L,0.22637777777777776,0.13419999999999999,0.061,0.23044444444444442
14,11,22,1,7,19.397999999999985,20,114,2,109,7,12,19.458999999999985,3.781999999999997,0.7319999999999998,0.305,20,14,5,2,115,21,7,2,6,0.5,38,5,6,L,0.16920869565217392,0.18009523809523809,0.10457142857142857,0.1525
14,12,23,1,7,11.589999999999991,16,60,6,1,4,7,11.77299999999999,3.1719999999999975,0.9149999999999996,6.038999999999995,18,10,4,13,62,19,4,28,6,1,72,6,6,L,0.18988709677419352,0.16694736842105262,0.22875,0.21567857142857141
14,12,24,1,15,15.676999999999987,19,87,15,21,81,56,15.859999999999987,0.366,5.428999999999996,6.404999999999995,20,3,9,10,89,3,15,15,6,0,19,4.75,6,L,0.17820224719101121,0.122,0.3619333333333333,0.4269999999999999
14,13,25,1,3,12.26099999999999,16,56,31,97,35,105,25.49799999999998,0.5489999999999999,0.5489999999999999,2.744999999999998,20,2,5,10,122,2,5,12,5,0,14,3.5,6,L,0.209,0.27449999999999997,0.1098,0.22875
14,13,26,1,12,20.861999999999984,20,106,38,37,16,44,25.31499999999998,0.9759999999999995,4.269999999999997,1.7079999999999989,20,3,10,9,122,4,16,11,5,0.5,36,5.25,6,L,0.2075,0.244,0.266875,0.15527272727272728
14,14,27,1,12,19.153999999999986,18,90,42,40,55,9,20.556999999999984,3.537999999999997,8.478999999999994,1.7689999999999988,20,14,16,9,95,17,35,11,5,0,20,5,6,L,0.21638947368421052,0.20811764705882352,0.24225714285714284,0.1608181818181818
14,14,28,1,11,10.247999999999992,14,39,16,115,62,110,62.21999999999995,0.122,0.061,0.061,20,1,1,1,247,1,1,1,4,0,14,3.5,6,L,0.25190283400809715,0.122,0.061,0.061
14,15,29,1,13,23.118999999999982,20,114,117,53,59,111,24.88799999999998,6.221999999999995,2.2569999999999983,0.7319999999999998,20,14,8,4,122,30,8,4,2,0,12,3,6,L,0.204,0.20739999999999997,0.28212499999999996,0.183
14,15,30,1,7,16.469999999999988,20,75,2,5,25,108,17.872999999999987,0.061,2.744999999999998,0.9759999999999995,20,1,6,3,78,1,11,3,6,0,19,4.75,6,L,0.22914102564102562,0.061,0.24954545454545451,0.3253333333333333
14,16,31,1,13,27.205999999999978,20,130,114,81,119,55,28.059999999999977,7.136999999999994,7.441999999999994,0.7319999999999998,20,15,14,3,137,28,39,3,2,0,11,2.75,6,L,0.20481751824817518,0.2548928571428571,0.1908205128205128,0.244
14,16,32,1,15,34.708999999999975,17,155,14,19,88,30,34.769999999999975,0.9759999999999995,10.247999999999992,2.805999999999998,18,3,16,7,156,4,47,9,6,0,20,5,6,L,0.22288461538461538,0.244,0.21804255319148935,0.31177777777777765
15,1,1,0,7,16.530999999999988,20,84,15,14,20,22,18.482999999999986,7.136999999999994,0.183,4.086999999999997,20,17,2,9,96,33,2,15,6,1,72,6,5,L,0.19253125,0.21627272727272723,0.0915,0.27246666666666663
15,1,2,0,4,52.88699999999996,15,217,105,103,89,70,53.74099999999996,2.805999999999998,6.221999999999995,3.4159999999999973,19,5,13,13,221,7,26,17,2,0,11,2.75,5,L,0.24317194570135744,0.40085714285714275,0.23930769230769228,0.20094117647058823
15,2,3,0,6,9.027999999999993,12,50,6,3,38,83,11.589999999999991,3.3549999999999973,60.14599999999995,0.061,20,12,16,1,62,15,256,1,6,0,20,5,5,L,0.18693548387096773,0.22366666666666665,0.23494531249999998,0.061
15,2,4,0,3,24.58299999999998,19,103,68,103,104,91,45.078999999999965,1.0369999999999995,0.427,1.8909999999999987,20,4,2,4,189,4,2,4,5,0,11,2.75,5,L,0.23851322751322748,0.25925,0.2135,0.47274999999999984
15,3,5,0,6,17.384999999999987,20,96,9,6,2,12,18.665999999999986,0.8539999999999996,2.0129999999999986,2.3179999999999983,20,4,4,10,104,5,5,15,6,1,72,6,5,L,0.17948076923076922,0.17079999999999998,0.4025999999999999,0.15453333333333333
15,3,6,0,10,22.996999999999982,14,102,95,89,14,105,24.21699999999998,0.6099999999999999,69.96700000000064,0.061,18,3,17,1,106,3,265,1,3,0,14,3.5,5,L,0.2284622641509434,0.20333333333333334,0.2640264150943396,0.061
15,4,7,0,5,33.915999999999976,17,160,14,42,77,102,83.38699999999994,1.0369999999999995,0.061,0.183,20,5,1,2,370,5,1,2,5,0,16,4,5,L,0.22537027027027026,0.20739999999999995,0.061,0.0915
15,4,8,0,8,20.434999999999985,20,100,114,111,110,85,24.70499999999998,2.3789999999999982,2.8669999999999978,7.319999999999994,20,8,12,15,110,8,17,35,2,0.5,15,2.25,5,L,0.22459090909090906,0.297375,0.1686470588235294,0.20914285714285713
15,5,9,1,12,22.325999999999983,20,115,47,43,93,66,24.09499999999998,4.147999999999997,6.221999999999995,2.744999999999998,20,14,12,6,123,24,23,7,5,0,17,4.25,5,L,0.1958943089430894,0.17283333333333334,0.27052173913043476,0.39214285714285707
15,5,10,1,7,51.97199999999996,14,217,3,74,6,1,54.22899999999996,1.2199999999999993,3.903999999999997,10.613999999999992,20,7,12,16,226,8,14,38,6,0.5,39,5.25,5,L,0.23995132743362832,0.1525,0.2788571428571428,0.2793157894736842
15,6,11,1,13,18.238999999999987,16,77,120,15,24,16,18.299999999999986,18.360999999999986,0.9759999999999995,2.0739999999999985,17,18,3,8,78,75,4,9,2,0.5,38,5,5,L,0.2346153846153846,0.2448133333333333,0.244,0.23044444444444442
15,6,12,1,3,18.909999999999986,20,77,3,67,73,34,28.66999999999998,0.122,0.305,0.488,20,1,2,2,125,1,2,2,5,0,18,4.5,5,L,0.22935999999999995,0.122,0.1525,0.244
15,7,13,1,11,30.194999999999975,20,142,64,63,38,11,31.780999999999974,3.3549999999999973,9.027999999999993,0.5489999999999999,20,12,16,2,148,16,34,2,4,0,19,4.75,5,L,0.21473648648648647,0.20968749999999994,0.26552941176470585,0.27449999999999997
15,7,14,1,13,18.970999999999986,16,78,119,76,116,113,20.678999999999984,1.646999999999999,0.122,0.183,19,9,1,2,81,11,1,2,2,0.5,15,2.25,5,L,0.25529629629629624,0.1497272727272727,0.122,0.0915
15,8,15,1,12,19.946999999999985,20,100,3,91,6,40,106.1400000000025,0.488,5.367999999999996,0.061,20,5,15,1,443,5,26,1,5,0,20,5,5,L,0.2395936794582393,0.09759999999999999,0.20646153846153845,0.061
15,8,16,1,13,17.201999999999988,20,74,65,118,119,81,22.752999999999982,0.9149999999999996,1.0979999999999994,14.395999999999988,20,3,2,17,91,3,2,57,2,0,11,2.75,5,L,0.250032967032967,0.30499999999999994,0.5489999999999997,0.25256140350877193
15,9,17,1,2,21.349999999999984,20,106,49,16,116,52,21.654999999999983,13.663999999999989,0.427,0.061,20,18,1,1,109,54,1,1,4,0,16,4,5,L,0.19866972477064218,0.253037037037037,0.427,0.061
15,9,18,1,7,26.04699999999998,14,102,11,3,2,1,26.90099999999998,0.6099999999999999,1.463999999999999,6.587999999999995,18,3,6,16,106,3,9,37,6,1,72,6,5,L,0.2537830188679245,0.20333333333333334,0.16266666666666665,0.17805405405405403
15,10,19,1,2,39.89399999999997,18,170,58,57,52,24,43.12699999999997,1.646999999999999,0.183,4.025999999999997,20,9,2,10,183,13,2,13,4,0.5,30,4.5,5,L,0.23566666666666664,0.1266923076923077,0.0915,0.30969230769230766
15,10,20,1,11,35.379999999999974,14,161,71,70,65,61,35.562999999999974,2.9889999999999977,4.7579999999999965,2.2569999999999983,15,10,11,8,162,13,19,13,4,1,48,4,5,L,0.2195246913580247,0.2299230769230769,0.2504210526315789,0.17361538461538462
15,11,21,1,13,14.761999999999988,17,82,40,86,109,120,38.49099999999997,22.264999999999983,2.683999999999998,3.598999999999997,20,19,6,11,163,98,7,17,2,0,12,3,5,L,0.23614110429447854,0.22719387755102038,0.3834285714285714,0.21170588235294116
15,11,22,1,11,30.743999999999975,20,145,71,64,67,82,31.902999999999974,1.4029999999999991,1.8299999999999987,0.5489999999999999,20,5,5,4,149,7,7,5,4,0.5,27,3.75,5,L,0.21411409395973152,0.20042857142857143,0.2614285714285714,0.1098
15,12,23,1,7,11.406999999999991,19,62,5,11,10,92,11.589999999999991,1.646999999999999,16.591999999999988,1.524999999999999,20,7,17,7,64,7,64,9,6,0.5,39,5.25,5,L,0.18109375,0.23528571428571426,0.25925,0.16944444444444443
15,12,24,1,1,17.811999999999987,19,84,84,73,71,74,19.519999999999985,5.367999999999996,3.0499999999999976,0.305,20,14,9,3,90,24,10,3,3,0.5,22,3.25,5,L,0.21688888888888888,0.22366666666666662,0.30499999999999994,0.10166666666666667
15,13,25,1,7,21.959999999999983,18,102,3,12,5,25,22.020999999999983,3.3549999999999973,2.9279999999999977,5.550999999999996,19,12,7,14,103,28,10,22,6,0.5,41,5.75,5,L,0.21379611650485436,0.11982142857142858,0.29279999999999995,0.2523181818181818
15,13,26,1,15,21.044999999999984,18,100,13,18,17,22,25.55899999999998,1.8299999999999987,0.488,0.9759999999999995,20,7,2,4,114,8,2,5,6,1,72,6,5,L,0.2242017543859649,0.22875,0.244,0.19519999999999998
15,14,27,1,15,22.691999999999982,20,102,23,14,20,45,24.88799999999998,11.71199999999999,4.269999999999997,0.9149999999999996,20,17,13,5,117,52,21,5,6,0.5,41,5.75,5,L,0.21271794871794872,0.22523076923076918,0.20333333333333334,0.183
15,14,28,1,11,25.00999999999998,15,120,69,64,29,25,26.35199999999998,2.2569999999999983,10.247999999999992,4.6969999999999965,20,7,15,13,127,8,43,22,4,0,18,4.5,5,L,0.20749606299212595,0.28212499999999996,0.23832558139534882,0.2135
15,15,29,1,1,12.68799999999999,19,71,83,75,76,53,15.432999999999987,2.8669999999999978,1.646999999999999,25.07099999999998,20,12,6,16,84,13,9,99,3,0.5,22,3.25,5,L,0.18372619047619046,0.22053846153846152,0.183,0.2532424242424242
15,15,30,1,14,55.265999999999956,15,231,96,88,85,28,55.692999999999955,5.062999999999996,1.0369999999999995,7.685999999999994,17,16,4,15,233,24,5,35,3,0.5,23,3.5,5,L,0.23902575107296134,0.21095833333333333,0.2074,0.2196
16,1,1,0,9,27.693999999999978,18,121,61,71,74,108,28.303999999999977,0.6099999999999999,18.787999999999986,0.7319999999999998,20,4,16,4,123,4,78,4,4,0,13,3.25,6,L,0.23011382113821136,0.1525,0.24087179487179483,0.183
16,1,2,0,6,21.288999999999984,17,111,1,12,85,111,21.593999999999983,2.3179999999999983,12.01699999999999,1.4029999999999991,19,8,16,7,113,10,56,8,6,0,17,4.25,6,L,0.19109734513274337,0.2318,0.2145892857142857,0.175375
16,2,3,0,10,11.77299999999999,19,59,89,104,87,107,16.10399999999999,8.905999999999993,0.122,7.136999999999994,20,17,1,14,80,35,1,27,3,0,10,2.5,6,L,0.20129999999999998,0.2544571428571428,0.122,0.2643333333333333
16,2,4,0,3,11.223999999999991,17,63,26,29,35,33,12.93199999999999,0.305,0.244,2.0739999999999985,20,2,2,11,72,2,2,16,5,1,60,5,6,L,0.1796111111111111,0.1525,0.122,0.129625
16,3,5,0,1,19.885999999999985,18,94,78,75,66,34,26.71799999999998,1.585999999999999,3.476999999999997,28.120999999999977,20,4,11,17,125,6,17,109,3,0,15,3.75,6,L,0.213744,0.2643333333333333,0.20452941176470585,0.25799082568807336
16,3,6,0,2,29.645999999999976,19,148,59,60,95,4,32.81799999999998,2.439999999999998,22.752999999999982,6.953999999999994,20,9,18,16,164,11,88,34,4,0,17,4.25,6,L,0.20010975609756096,0.2218181818181818,0.25855681818181814,0.20452941176470588
16,4,7,0,7,17.140999999999988,18,87,24,13,21,18,17.567999999999987,2.744999999999998,0.6099999999999999,1.2199999999999993,20,9,3,7,90,11,3,7,6,1,72,6,6,L,0.19519999999999998,0.24954545454545451,0.20333333333333334,0.1742857142857143
16,4,8,0,8,11.95599999999999,20,55,117,3,114,8,16.469999999999988,62.03699999999995,0.183,0.366,20,19,2,1,70,233,2,1,2,0,16,4,6,L,0.23528571428571426,0.2662532188841201,0.0915,0.366
16,5,9,0,7,20.617999999999984,19,105,16,19,21,102,20.800999999999984,1.9519999999999986,0.183,5.7949999999999955,20,8,2,12,107,12,2,23,6,0.5,38,5,6,L,0.1944018691588785,0.16266666666666665,0.0915,0.2519565217391304
16,5,10,0,6,9.332999999999993,20,59,8,4,10,12,9.698999999999993,1.8299999999999987,2.1349999999999985,0.244,20,5,9,2,60,6,11,2,6,1,72,6,6,L,0.16165,0.30499999999999994,0.1940909090909091,0.122
16,6,11,1,12,30.987999999999975,20,152,64,15,38,40,36.35599999999997,0.7319999999999998,2.1349999999999985,0.7319999999999998,20,2,8,4,174,3,8,4,5,0,20,5,6,L,0.20894252873563218,0.244,0.266875,0.183
16,6,12,1,3,27.14499999999998,19,116,31,26,6,111,28.791999999999977,0.122,14.822999999999988,0.488,20,2,17,2,122,2,63,2,5,0,18,4.5,6,L,0.236,0.061,0.23528571428571426,0.244
16,7,13,1,13,74.35900000000115,17,332,71,22,24,29,78.38500000000114,2.2569999999999983,1.0369999999999995,2.500999999999998,20,9,5,6,349,13,6,8,2,0,21,5.25,6,L,0.22459885386819484,0.17361538461538462,0.17283333333333334,0.312625
16,7,14,1,1,22.020999999999983,18,104,73,77,78,74,22.630999999999982,0.9759999999999995,0.061,3.1719999999999975,20,3,1,12,109,4,1,20,3,1,36,3,6,L,0.20762385321100915,0.244,0.061,0.1586
16,8,15,1,8,7.258999999999994,16,28,101,100,106,5,7.685999999999994,7.380999999999994,4.879999999999996,42.27299999999997,18,18,15,17,30,35,22,174,2,0.5,18,3,6,L,0.2562,0.21088571428571426,0.2218181818181818,0.24294827586206894
16,8,16,1,15,24.21699999999998,16,108,14,18,90,117,24.27799999999998,4.025999999999997,1.524999999999999,5.428999999999996,17,13,5,15,109,19,5,24,6,0,17,4.25,6,L,0.22273394495412843,0.21189473684210522,0.30499999999999994,0.22620833333333332
16,9,17,1,7,41.35799999999997,11,157,10,7,3,87,41.47999999999997,2.8669999999999978,11.83399999999999,2.3789999999999982,13,10,17,8,159,13,48,11,6,0.5,39,5.25,6,L,0.26088050314465405,0.22053846153846152,0.2465416666666666,0.21627272727272726
16,9,18,1,8,20.800999999999984,20,79,100,103,98,69,21.349999999999984,2.9889999999999977,2.2569999999999983,1.0979999999999994,20,9,9,4,83,11,12,4,2,0.5,16,2.5,6,L,0.25722891566265055,0.2717272727272727,0.1880833333333333,0.27449999999999997
16,10,19,1,14,31.353999999999974,20,117,92,13,91,64,33.671999999999976,1.463999999999999,0.244,4.452999999999997,20,3,2,11,129,4,2,15,3,0,16,4,6,L,0.26102325581395347,0.36599999999999994,0.122,0.2968666666666666
16,10,20,1,2,22.142999999999983,20,118,57,54,50,53,22.203999999999983,1.463999999999999,0.8539999999999996,2.622999999999998,20,7,6,8,119,8,6,9,4,1,48,4,6,L,0.18658823529411764,0.183,0.14233333333333334,0.2914444444444444
16,11,21,1,8,11.040999999999991,15,66,14,19,17,108,34.830999999999975,15.554999999999987,47.57999999999996,0.061,20,18,18,1,167,70,212,1,2,0.5,38,5,6,L,0.20856886227544907,0.2222142857142857,0.2244339622641509,0.061
16,11,22,1,13,73.9320000000011,16,319,65,27,62,25,77.2260000000011,0.6099999999999999,4.086999999999997,0.8539999999999996,20,3,8,5,331,3,12,6,2,0,18,4.5,6,L,0.23331117824773415,0.20333333333333334,0.34058333333333324,0.1423333333333333
16,12,23,1,14,67.0390000000003,19,292,36,27,90,64,70.1500000000003,6.8929999999999945,0.061,4.025999999999997,20,12,1,12,308,21,1,18,3,0,17,4.25,6,L,0.22775974025974025,0.32823809523809516,0.061,0.22366666666666665
16,12,24,1,7,28.913999999999977,15,144,3,4,41,7,29.096999999999976,3.9649999999999967,2.0129999999999986,0.244,17,10,6,3,146,13,7,3,6,0.5,41,5.75,6,L,0.1992945205479452,0.30499999999999994,0.2875714285714285,0.08133333333333333
16,13,25,1,1,53.13099999999996,15,234,78,74,67,48,54.716999999999956,0.7929999999999997,1.646999999999999,5.977999999999995,20,4,6,12,247,4,7,19,3,0,15,3.75,6,L,0.22152631578947365,0.19824999999999998,0.23528571428571426,0.3146315789473684
16,13,26,1,2,20.190999999999985,20,113,52,28,49,56,20.861999999999984,4.208999999999997,1.7689999999999988,1.2809999999999993,20,8,7,5,117,11,10,6,4,0.5,29,4.25,6,L,0.1783076923076923,0.3826363636363635,0.17689999999999997,0.2135
16,14,27,1,7,27.449999999999978,19,131,1,4,67,5,28.059999999999977,2.683999999999998,1.585999999999999,0.488,20,9,7,2,133,10,8,2,6,0.5,40,5.5,6,L,0.21097744360902254,0.26839999999999997,0.19824999999999998,0.244
16,14,28,1,13,34.342999999999975,20,136,115,76,22,14,37.63699999999997,4.330999999999997,2.561999999999998,2.1959999999999984,20,11,6,8,153,19,8,10,2,0,17,4.25,6,L,0.24599346405228756,0.22794736842105262,0.3202499999999999,0.2196
16,15,29,1,3,18.055999999999987,18,88,26,35,72,87,21.654999999999983,0.6709999999999998,1.9519999999999986,1.3419999999999992,20,3,6,5,102,3,8,6,5,0,17,4.25,6,L,0.21230392156862743,0.22366666666666665,0.24399999999999997,0.22366666666666665
16,15,30,1,2,19.458999999999985,17,90,59,49,54,52,20.800999999999984,0.7929999999999997,0.366,0.5489999999999999,20,3,3,4,96,3,3,4,4,1,48,4,6,L,0.21667708333333333,0.2643333333333333,0.122,0.13724999999999998
17,1,1,0,2,15.981999999999987,18,80,54,55,50,52,16.835999999999988,2.683999999999998,5.367999999999996,0.061,20,6,16,1,87,8,24,1,4,1,48,4,5,L,0.19351724137931034,0.33549999999999996,0.22366666666666662,0.061
17,1,2,0,3,34.403999999999975,16,165,26,28,81,61,34.647999999999975,3.0499999999999976,15.005999999999988,0.7319999999999998,17,9,16,4,167,17,57,4,5,0,17,4.25,5,L,0.20747305389221554,0.17941176470588235,0.2632631578947368,0.183
17,2,3,0,5,29.157999999999976,14,132,37,42,43,68,29.279999999999976,1.463999999999999,1.7689999999999988,5.306999999999996,16,6,5,11,134,7,7,23,5,0.5,34,4.75,5,L,0.21850746268656715,0.20914285714285713,0.25271428571428567,0.2307391304347826
17,2,4,0,3,14.212999999999989,14,68,36,28,27,29,18.360999999999986,0.5489999999999999,1.2199999999999993,2.439999999999998,20,2,8,10,85,2,9,17,5,1,60,5,5,L,0.21601176470588235,0.27449999999999997,0.13555555555555554,0.14352941176470588
17,3,5,0,6,14.029999999999989,19,70,5,8,11,9,16.774999999999988,0.061,0.6709999999999998,1.2809999999999993,20,1,4,7,83,1,4,7,6,1,72,6,5,L,0.20210843373493975,0.061,0.16775,0.183
17,3,6,0,5,13.11499999999999,12,65,44,119,38,48,13.663999999999989,6.160999999999995,6.343999999999995,3.537999999999997,16,12,16,9,69,25,31,12,5,0.5,32,4.25,5,L,0.19802898550724637,0.24644,0.20464516129032256,0.2948333333333333
17,4,7,0,10,17.323999999999987,18,97,1,49,94,85,331.9010000000016,0.122,0.061,0.061,20,2,1,1,1387,2,1,1,3,0,16,4,5,L,0.23929416005767856,0.061,0.061,0.061
17,4,8,0,3,17.445999999999987,19,82,36,109,120,118,17.506999999999987,15.493999999999987,4.086999999999997,7.502999999999994,20,17,12,15,83,63,18,36,5,0.5,17,2.75,5,L,0.21092771084337347,0.24593650793650793,0.22705555555555554,0.20841666666666664
17,5,9,1,3,35.135999999999974,17,162,36,28,27,33,36.11199999999997,1.2809999999999993,0.7929999999999997,2.439999999999998,20,7,2,7,166,7,2,10,5,1,60,5,5,L,0.21754216867469878,0.183,0.39649999999999985,0.244
17,5,10,1,7,23.66799999999998,19,107,1,7,5,90,23.72899999999998,0.9149999999999996,8.417999999999994,1.585999999999999,20,6,16,7,108,6,32,8,6,0.5,39,5.25,5,L,0.21971296296296294,0.1525,0.2630625,0.19824999999999998
17,6,11,1,11,36.23399999999997,20,163,63,66,14,15,37.63699999999997,2.8669999999999978,8.112999999999994,0.427,20,9,17,2,170,10,35,2,4,0,20,5,5,L,0.2213941176470588,0.28669999999999995,0.23179999999999998,0.2135
17,6,12,1,3,34.647999999999975,16,167,27,4,29,102,36.11199999999997,25.43699999999998,4.269999999999997,3.659999999999997,20,19,13,10,174,93,22,14,5,0,18,4.5,5,L,0.20754022988505744,0.273516129032258,0.1940909090909091,0.2614285714285714
17,7,13,1,3,32.14699999999998,17,135,35,27,103,70,32.39099999999998,0.8539999999999996,4.391999999999997,5.489999999999996,19,4,13,12,137,5,20,22,5,0,16,4,5,L,0.23643065693430654,0.1708,0.2196,0.24954545454545454
17,7,14,1,14,10.430999999999992,18,46,94,95,113,96,12.32199999999999,3.659999999999997,8.661999999999994,1.1589999999999994,20,9,17,8,55,11,36,8,3,0.5,20,2.75,5,L,0.22403636363636362,0.33272727272727265,0.24061111111111108,0.144875
17,8,15,1,7,14.334999999999988,16,61,3,6,4,37,14.700999999999988,1.2809999999999993,6.8319999999999945,1.2199999999999993,19,5,14,4,64,7,24,5,6,0.5,41,5.75,5,L,0.22970312499999998,0.18299999999999997,0.2846666666666667,0.244
17,8,16,1,1,32.02499999999998,20,131,82,76,81,74,32.81799999999998,0.488,2.744999999999998,3.4159999999999973,20,3,8,12,135,3,11,16,3,1,36,3,5,L,0.24309629629629628,0.16266666666666665,0.24954545454545454,0.21349999999999997
17,9,17,1,14,26.96199999999998,17,124,95,88,116,85,27.266999999999978,3.0499999999999976,0.305,1.9519999999999986,19,11,2,9,126,14,2,11,3,0.5,20,2.75,5,L,0.21640476190476188,0.21785714285714283,0.1525,0.17745454545454545
17,9,18,1,1,18.360999999999986,16,89,81,74,68,26,20.129999999999985,0.8539999999999996,11.650999999999991,3.4159999999999973,20,4,17,12,100,4,54,15,3,0,15,3.75,5,L,0.20129999999999998,0.21349999999999997,0.21575925925925926,0.22773333333333332
17,10,19,1,11,31.536999999999974,20,146,38,62,41,70,38.67399999999997,0.122,3.1719999999999975,2.3789999999999982,20,1,12,5,177,1,17,6,4,0,18,4.5,5,L,0.21849717514124292,0.122,0.18658823529411764,0.39649999999999985
17,10,20,1,2,33.854999999999976,17,143,29,13,74,53,53.00899999999996,9.881999999999993,0.305,0.7319999999999998,20,17,2,3,215,32,2,3,4,0,18,4.5,5,L,0.246553488372093,0.30881249999999993,0.1525,0.24399999999999997
17,11,21,1,15,12.50499999999999,19,63,20,15,18,19,13.11499999999999,1.4029999999999991,8.417999999999994,2.0129999999999986,20,5,14,8,69,7,33,11,6,1,72,6,5,L,0.19007246376811593,0.20042857142857143,0.25509090909090903,0.183
17,11,22,1,13,108.33600000000507,15,456,56,9,55,110,112.72800000000507,0.366,1.8909999999999987,4.025999999999997,20,3,9,11,475,3,11,18,2,0,16,4,5,L,0.23732210526315797,0.122,0.1719090909090909,0.22366666666666665
17,12,23,1,7,19.946999999999985,20,88,8,6,4,2,20.007999999999985,0.061,3.1109999999999975,2.9279999999999977,20,1,9,11,89,1,13,16,6,1,72,6,5,L,0.22480898876404493,0.061,0.23930769230769228,0.183
17,12,24,1,15,13.785999999999989,18,72,14,18,39,108,13.907999999999989,5.123999999999996,21.349999999999984,0.122,20,13,16,1,74,22,78,1,6,0,19,4.75,5,L,0.18794594594594594,0.2329090909090909,0.2737179487179487,0.122
17,13,25,1,7,25.00999999999998,20,123,5,8,12,6,29.279999999999976,0.6099999999999999,0.7929999999999997,0.9149999999999996,20,3,5,3,139,3,6,3,6,1,72,6,5,L,0.2106474820143885,0.20333333333333334,0.13216666666666665,0.305
17,13,26,1,1,33.488999999999976,16,152,76,77,82,81,33.976999999999975,0.061,5.611999999999996,0.366,18,1,8,2,155,1,17,2,3,1,36,3,5,L,0.2192064516129032,0.061,0.3301176470588235,0.183
17,14,27,1,1,30.621999999999975,20,135,57,102,73,82,63.01299999999995,0.061,1.2199999999999993,1.7079999999999989,20,1,5,8,277,1,5,8,3,0,12,3,5,L,0.2274837545126354,0.061,0.24399999999999997,0.2135
17,14,28,1,3,30.316999999999975,19,134,13,34,68,72,59.65799999999995,0.244,0.061,0.061,20,2,1,1,270,2,1,1,5,0,19,4.75,5,L,0.22095555555555554,0.122,0.061,0.061
18,1,1,0,3,31.170999999999975,18,146,14,72,70,80,2700.1650000004356,0.061,0.061,0.305,20,1,1,2,11010,1,1,2,5,0,17,4.25,2,L,0.24524659400544954,0.061,0.061,0.1525
18,1,2,0,5,14.151999999999989,19,76,38,41,112,109,15.981999999999987,2.3179999999999983,4.452999999999997,2.500999999999998,20,8,11,10,87,9,22,15,5,0,14,3.5,2,L,0.18370114942528734,0.25755555555555554,0.2024090909090909,0.16673333333333332
