Subject,Round,Phase,afterbreak,Schema,Schema_RT,Schema_OB,Schema_AS,Cho_1,Cho_2,Cho_3,Cho_4,RT_1,RT_2,RT_3,RT_4,OB_1,OB_2,OB_3,OB_4,AS_1,AS_2,AS_3,AS_4,schema_payoff,AC,performance,payoff,breakR,type,dwellmean_1,dwellmean_2,dwellmean_3,dwellmean_4
1,1,1,0,3,3.4159999999999973,13,18,35,87,98,72,6.648999999999995,5.123999999999996,2.2569999999999983,0.9759999999999995,20,16,9,5,34,25,12,5,5,0,14,3.5,7,L,0.19555882352941176,0.20496,0.18808333333333332,0.19519999999999998
1,1,2,0,1,3.842999999999997,15,21,49,81,4,79,5.489999999999996,1.1589999999999994,1.9519999999999986,0.488,20,6,9,2,29,8,11,2,3,0,16,4,7,L,0.1893103448275862,0.144875,0.17745454545454545,0.244
1,2,3,0,5,7.380999999999994,17,42,43,57,39,20,7.502999999999994,3.781999999999997,0.9759999999999995,1.1589999999999994,19,13,3,5,44,18,3,7,5,0,20,5,7,L,0.17052272727272727,0.2101111111111111,0.32533333333333325,0.16557142857142856
1,2,4,0,1,4.574999999999997,17,28,10,36,27,25,9.820999999999993,0.122,2.0129999999999986,0.8539999999999996,20,2,6,3,52,2,9,4,3,0.5,36,5.25,7,L,0.1888653846153846,0.061,0.22366666666666665,0.2135
1,3,5,0,5,5.062999999999996,14,27,45,100,99,49,8.051999999999994,2.439999999999998,0.122,0.183,20,7,1,1,37,7,1,1,5,0,13,3.25,7,L,0.2176216216216216,0.34857142857142853,0.122,0.183
1,3,6,0,9,6.526999999999995,19,38,70,72,66,35,8.051999999999994,2.805999999999998,1.3419999999999992,0.5489999999999999,20,11,5,2,49,13,5,2,4,0.5,29,4.25,7,L,0.1643265306122449,0.21584615384615383,0.26839999999999997,0.27449999999999997
1,4,7,0,8,4.513999999999997,13,22,18,47,15,17,7.258999999999995,2.744999999999998,0.244,1.524999999999999,20,10,1,7,34,12,1,7,2,0.5,41,5.75,7,L,0.2135,0.22875,0.244,0.21785714285714283
1,4,8,0,6,3.2939999999999974,12,18,2,49,11,82,4.025999999999997,0.183,0.9759999999999995,1.2809999999999993,15,1,4,3,21,1,6,3,6,0,19,4.75,7,L,0.1917142857142857,0.183,0.16266666666666665,0.42699999999999994
1,5,9,0,7,5.245999999999996,16,27,13,58,20,80,6.953999999999995,0.305,0.122,4.330999999999997,20,2,1,11,35,2,1,20,6,0,19,4.75,7,L,0.19868571428571427,0.1525,0.122,0.21655
1,5,10,0,9,5.7949999999999955,14,27,64,61,103,107,7.929999999999994,0.183,1.585999999999999,1.8299999999999987,20,2,10,7,37,2,12,7,4,0,12,3,7,L,0.2143243243243243,0.0915,0.13216666666666665,0.2614285714285714
1,6,11,0,3,8.173999999999994,13,42,92,52,36,28,8.600999999999994,0.7319999999999998,0.305,1.8299999999999987,15,2,3,8,44,2,3,10,5,0,17,4.25,7,L,0.19547727272727272,0.366,0.10166666666666667,0.183
1,6,12,0,1,6.404999999999995,17,33,77,39,107,98,9.332999999999993,2.3789999999999982,0.122,2.1349999999999985,20,12,1,9,44,13,1,13,3,0,12,3,7,L,0.21211363636363637,0.183,0.122,0.1642307692307692
1,7,13,1,7,2.744999999999998,9,20,10,8,2,54,2.9279999999999977,0.366,2.9889999999999977,0.061,11,2,10,1,22,2,12,1,6,0.5,40,5.5,7,L,0.1330909090909091,0.183,0.24908333333333332,0.061
1,7,14,1,8,3.903999999999997,12,22,104,65,99,70,7.929999999999994,0.8539999999999996,0.9759999999999995,0.6709999999999998,20,5,5,2,43,5,5,2,2,0,12,3,7,L,0.18441860465116278,0.1708,0.19519999999999998,0.3354999999999999
1,8,15,1,11,2.9889999999999977,12,21,64,66,99,35,3.7209999999999974,1.9519999999999986,3.2939999999999974,3.781999999999997,15,7,7,6,25,8,11,16,4,0,15,3.75,7,L,0.14884,0.244,0.2994545454545454,0.23637499999999997
1,8,16,1,1,4.269999999999997,11,20,84,76,41,75,7.746999999999995,1.8299999999999987,0.305,0.061,20,7,2,1,35,11,2,1,3,0.5,23,3.5,7,L,0.22134285714285715,0.16636363636363635,0.1525,0.061
1,9,17,1,12,5.245999999999996,14,26,48,69,37,47,5.733999999999996,2.1349999999999985,0.9149999999999996,0.7319999999999998,16,6,4,4,28,8,5,4,5,0.5,34,4.75,7,L,0.20478571428571427,0.266875,0.183,0.183
1,9,18,1,7,5.123999999999996,15,28,6,27,12,57,5.245999999999996,3.3549999999999973,3.659999999999997,0.9759999999999995,17,10,10,5,30,17,13,6,6,0,21,5.25,7,L,0.17486666666666664,0.1973529411764706,0.2815384615384615,0.16266666666666665
1,10,19,1,3,4.7579999999999965,16,28,54,29,22,32,9.820999999999993,1.0369999999999995,2.2569999999999983,0.6709999999999998,20,6,7,3,50,8,8,4,5,0,20,5,7,L,0.19641999999999998,0.129625,0.2821249999999999,0.16775
1,10,20,1,8,8.600999999999994,14,37,68,46,2,11,15.18899999999999,2.500999999999998,0.061,0.183,20,10,1,2,77,11,1,2,2,0,21,5.25,7,L,0.19725974025974025,0.22736363636363635,0.061,0.0915
1,11,21,1,1,3.476999999999997,10,21,79,82,77,109,4.330999999999997,2.3789999999999982,3.9649999999999967,2.9279999999999977,13,8,12,7,24,9,15,12,3,0.5,20,2.75,7,L,0.18045833333333333,0.2643333333333333,0.2643333333333333,0.244
1,11,22,1,14,6.526999999999995,17,40,90,48,94,2,7.075999999999995,0.7929999999999997,0.7929999999999997,1.524999999999999,19,2,2,8,42,2,2,12,3,0,17,4.25,7,L,0.16847619047619047,0.3964999999999999,0.39649999999999996,0.12708333333333333
1,12,23,1,7,6.099999999999995,15,33,45,6,107,57,7.746999999999995,0.6099999999999999,4.269999999999997,0.366,18,5,7,4,36,6,11,4,6,0,17,4.25,7,L,0.21519444444444444,0.10166666666666667,0.38818181818181813,0.0915
1,12,24,1,11,4.635999999999997,17,30,116,13,110,95,7.441999999999995,7.8689999999999936,1.524999999999999,0.5489999999999999,20,16,3,3,36,26,6,3,4,0,13,3.25,7,L,0.2067222222222222,0.3026538461538461,0.25416666666666665,0.183
1,13,25,1,7,8.539999999999994,14,38,99,42,3,4,11.83399999999999,1.3419999999999992,6.770999999999995,0.5489999999999999,20,6,13,2,53,6,26,2,6,0,19,4.75,7,L,0.2232830188679245,0.22366666666666662,0.26042307692307687,0.27449999999999997
1,13,26,1,15,7.624999999999994,15,41,14,64,111,89,7.685999999999994,1.9519999999999986,0.6709999999999998,0.305,16,4,4,2,42,6,4,2,6,0,15,3.75,7,L,0.183,0.3253333333333333,0.16775,0.1525
1,14,27,1,3,8.234999999999994,18,44,29,16,13,15,8.661999999999994,0.9759999999999995,3.0499999999999976,2.561999999999998,20,5,10,7,46,5,12,11,5,0.5,41,5.75,7,L,0.18830434782608696,0.19519999999999998,0.25416666666666665,0.2329090909090909
1,14,28,1,13,4.7579999999999965,18,31,113,69,110,90,5.489999999999997,3.842999999999997,0.183,0.488,20,11,2,2,33,19,2,2,2,0,11,2.75,7,L,0.16636363636363635,0.2022631578947368,0.0915,0.244
1,15,29,1,1,5.7949999999999955,16,34,84,98,102,25,9.271999999999993,2.9279999999999977,2.622999999999998,0.5489999999999999,20,8,10,3,53,12,11,3,3,0,12,3,7,L,0.17494339622641508,0.24399999999999997,0.23845454545454542,0.183
1,15,30,1,13,6.221999999999995,17,37,111,96,17,24,7.746999999999995,0.7929999999999997,0.9759999999999995,2.1959999999999984,20,5,2,6,47,5,2,9,2,0,17,4.25,7,L,0.16482978723404254,0.1586,0.4879999999999999,0.244
1,16,31,1,15,7.258999999999994,16,31,17,57,91,87,9.088999999999993,5.672999999999996,2.9279999999999977,0.366,20,14,10,2,40,25,13,2,6,0,16,4,7,L,0.22722499999999995,0.22691999999999998,0.2252307692307692,0.183
1,16,32,1,7,7.075999999999994,15,39,3,29,11,10,7.136999999999994,1.8299999999999987,1.8909999999999987,0.061,16,5,7,1,40,7,9,1,6,0.5,41,5.75,7,L,0.17842499999999997,0.2614285714285714,0.21011111111111108,0.061
1,17,33,1,3,5.062999999999996,16,33,34,71,119,118,5.916999999999996,3.1109999999999975,1.9519999999999986,1.8299999999999987,18,11,9,10,35,18,12,11,5,0,13,3.25,7,L,0.16905714285714285,0.17283333333333334,0.16266666666666665,0.16636363636363635
1,17,34,1,12,4.330999999999997,15,27,46,98,80,59,7.014999999999995,1.4029999999999991,0.9759999999999995,0.8539999999999996,20,4,5,4,35,6,5,5,5,0,14,3.5,7,L,0.2004285714285714,0.2338333333333333,0.19519999999999998,0.1708
1,18,35,1,12,3.0499999999999976,11,13,86,42,45,103,7.441999999999995,0.061,1.4029999999999991,0.7929999999999997,20,1,6,6,27,1,6,6,5,0,15,3.75,7,L,0.2756296296296296,0.061,0.23383333333333334,0.13216666666666665
1,18,36,1,13,4.086999999999997,14,21,51,12,2,10,5.306999999999997,4.635999999999997,6.8319999999999945,2.0129999999999986,17,11,12,9,26,21,27,11,2,0.5,40,5.5,7,L,0.20411538461538462,0.22076190476190471,0.253037037037037,0.183
1,19,37,1,3,4.513999999999997,16,24,35,117,95,109,5.855999999999996,4.513999999999997,1.585999999999999,1.0369999999999995,20,10,5,4,31,16,5,4,5,0,12,3,7,L,0.1889032258064516,0.28212499999999996,0.3171999999999999,0.25925
1,19,38,1,1,6.526999999999995,12,33,81,80,104,57,13.23699999999999,10.857999999999992,3.0499999999999976,0.6099999999999999,20,19,9,1,64,42,13,1,3,0,12,3,7,L,0.20682812499999997,0.2585238095238095,0.23461538461538456,0.6099999999999999
1,20,39,1,3,7.746999999999994,17,49,85,104,25,31,8.539999999999994,0.7319999999999998,0.244,1.1589999999999994,19,4,1,5,51,5,1,5,5,0,15,3.75,7,L,0.16745098039215686,0.1464,0.244,0.23179999999999995
1,20,40,1,1,5.7339999999999955,14,23,73,84,44,119,8.600999999999994,4.269999999999997,0.061,1.3419999999999992,20,14,1,5,32,20,1,7,3,0,13,3.25,7,L,0.26878124999999997,0.2135,0.061,0.1917142857142857
2,1,1,0,10,6.343999999999995,16,30,96,86,57,22,6.526999999999995,2.439999999999998,1.9519999999999986,1.646999999999999,18,8,8,9,32,11,11,10,3,0,16,4,7,L,0.20396874999999995,0.2218181818181818,0.17745454545454545,0.16469999999999999
2,1,2,0,4,5.001999999999996,16,32,62,25,108,7,5.977999999999996,4.208999999999997,0.061,0.9759999999999995,17,14,1,4,33,21,1,4,2,0,17,4.25,7,L,0.18115151515151512,0.20042857142857143,0.061,0.244
2,2,3,0,9,4.452999999999997,11,22,62,87,96,23,4.818999999999996,6.648999999999995,0.183,1.7079999999999989,13,13,2,7,24,29,2,10,4,0,16,4,7,L,0.20079166666666667,0.2292758620689655,0.0915,0.1708
2,2,4,0,2,6.526999999999995,14,39,59,99,54,39,7.197999999999995,1.2199999999999993,1.7079999999999989,2.0129999999999986,18,4,7,9,43,5,8,9,4,0,15,3.75,7,L,0.1673953488372093,0.24399999999999994,0.2135,0.22366666666666665
2,3,5,0,10,3.1719999999999975,14,24,119,57,85,96,10.064999999999992,1.9519999999999986,1.4029999999999991,0.061,20,6,8,1,53,7,9,1,3,0,12,3,7,L,0.18990566037735848,0.2788571428571428,0.15588888888888888,0.061
2,3,6,0,5,4.940999999999996,15,24,46,38,76,107,6.404999999999996,1.3419999999999992,1.4029999999999991,0.5489999999999999,20,4,6,1,32,5,7,1,5,0,15,3.75,7,L,0.20015625,0.26839999999999997,0.20042857142857143,0.5489999999999999
2,4,7,0,6,3.9649999999999967,14,25,7,39,9,5,5.184999999999996,3.0499999999999976,1.4029999999999991,1.2809999999999993,20,12,6,3,32,17,7,4,6,0.5,41,5.75,7,L,0.16203125,0.17941176470588235,0.2004285714285714,0.32025
2,4,8,0,1,4.147999999999997,14,22,84,25,64,16,5.916999999999996,0.9759999999999995,2.2569999999999983,0.9759999999999995,19,4,6,4,27,5,8,5,3,0,18,4.5,7,L,0.21914814814814812,0.19519999999999998,0.28212499999999996,0.19519999999999998
2,5,9,0,1,6.587999999999995,15,31,77,82,81,21,8.417999999999994,0.061,0.305,1.463999999999999,20,1,3,7,37,1,3,7,3,0.5,24,3.75,7,L,0.2275135135135135,0.061,0.10166666666666667,0.2091428571428571
2,5,10,0,3,4.7579999999999965,15,26,27,33,55,91,6.892999999999995,0.122,1.0979999999999994,0.305,20,1,6,1,36,1,7,1,5,0,17,4.25,7,L,0.1914722222222222,0.122,0.15685714285714286,0.305
2,6,11,0,8,5.550999999999996,17,38,110,5,83,115,6.160999999999996,1.8299999999999987,1.8909999999999987,0.9759999999999995,20,5,6,6,44,8,8,6,2,0,13,3.25,7,L,0.14002272727272727,0.22874999999999995,0.236375,0.16266666666666665
2,6,12,0,2,3.1109999999999975,12,16,58,94,59,87,9.881999999999993,2.3789999999999982,0.488,0.122,20,7,5,1,50,7,5,1,4,0,14,3.5,7,L,0.19763999999999998,0.33985714285714275,0.09759999999999999,0.122
2,7,13,1,14,6.160999999999995,17,35,95,94,93,4,6.282999999999995,2.3789999999999982,0.061,0.366,18,8,1,1,36,13,1,1,3,0.5,24,3.75,7,L,0.17452777777777775,0.183,0.061,0.366
2,7,14,1,2,6.709999999999995,15,35,58,76,24,49,9.454999999999993,0.6709999999999998,0.6099999999999999,2.1349999999999985,20,1,1,8,45,1,1,11,4,0,17,4.25,7,L,0.2101111111111111,0.6709999999999998,0.6099999999999999,0.19409090909090904
2,8,15,1,15,4.940999999999996,15,32,13,20,17,112,5.733999999999996,3.903999999999997,0.305,0.366,19,10,1,1,37,14,1,1,6,0.5,38,5,7,L,0.15497297297297297,0.2788571428571428,0.305,0.366
2,8,16,1,11,2.3789999999999982,11,13,102,2,7,66,4.7579999999999965,5.672999999999996,0.9759999999999995,0.122,18,16,5,1,22,28,5,1,4,0,18,4.5,7,L,0.21627272727272726,0.20260714285714285,0.19519999999999998,0.122
2,9,17,1,1,4.452999999999997,15,26,63,4,73,81,15.37199999999999,1.646999999999999,0.061,0.061,20,5,1,1,81,5,1,1,3,0,16,4,7,L,0.18977777777777777,0.32939999999999997,0.061,0.061
2,9,18,1,3,6.038999999999995,16,34,59,25,31,13,6.7709999999999955,1.2199999999999993,0.427,3.9649999999999967,17,2,4,14,36,3,4,23,5,0,20,5,7,L,0.18808333333333332,0.40666666666666657,0.10675,0.17239130434782607
2,10,19,1,3,5.184999999999996,15,21,32,25,19,100,5.916999999999996,3.720999999999997,0.9149999999999996,1.0979999999999994,19,11,3,5,25,17,3,7,5,0,18,4.5,7,L,0.23667999999999997,0.21888235294117647,0.30499999999999994,0.15685714285714286
2,10,20,1,12,2.439999999999998,11,15,63,115,61,1,11.162999999999991,12.80999999999999,1.0369999999999995,0.9759999999999995,20,17,6,3,49,42,8,3,5,0,16,4,7,L,0.22781632653061223,0.305,0.129625,0.3253333333333332
2,11,21,1,7,2.805999999999998,13,18,5,7,8,61,3.110999999999998,0.183,2.500999999999998,5.306999999999996,15,2,8,12,20,2,12,25,6,0.5,40,5.5,7,L,0.15555,0.0915,0.20841666666666667,0.21228
2,11,22,1,12,4.208999999999997,15,22,40,24,48,20,7.746999999999995,1.1589999999999994,0.244,0.305,20,6,2,1,38,6,2,1,5,0,22,5.5,7,L,0.20386842105263156,0.19316666666666665,0.122,0.305
2,12,23,1,7,5.489999999999996,12,28,1,3,25,36,5.550999999999996,0.8539999999999996,13.41999999999999,0.305,13,6,16,1,29,6,58,1,6,0,22,5.5,7,L,0.19141379310344828,0.14233333333333334,0.23137931034482756,0.305
2,12,24,1,1,6.099999999999995,16,29,69,65,102,81,7.319999999999995,2.805999999999998,0.488,1.4029999999999991,20,8,4,7,33,11,5,7,3,0,13,3.25,7,L,0.2218181818181818,0.2550909090909091,0.09759999999999999,0.20042857142857143
2,13,25,1,15,4.025999999999997,13,23,14,19,70,68,5.428999999999997,6.221999999999995,1.0369999999999995,0.305,20,13,5,1,33,24,6,1,6,0,20,5,7,L,0.1645151515151515,0.25925,0.17283333333333334,0.305
2,13,26,1,3,6.526999999999995,15,33,36,100,31,55,6.587999999999995,0.7319999999999998,0.8539999999999996,2.9889999999999977,16,3,3,7,34,3,3,11,5,0,16,4,7,L,0.19376470588235292,0.244,0.28466666666666657,0.2717272727272727
2,14,27,1,2,5.611999999999996,17,25,51,52,17,76,5.7949999999999955,2.622999999999998,5.611999999999996,3.903999999999997,19,11,15,11,27,18,25,16,4,0,17,4.25,7,L,0.21462962962962961,0.14572222222222223,0.22447999999999999,0.24399999999999997
2,14,28,1,14,4.574999999999997,15,24,85,2,86,66,5.306999999999997,1.9519999999999986,0.244,0.061,19,5,1,1,28,6,1,1,3,0,16,4,7,L,0.18953571428571428,0.32533333333333325,0.244,0.061
2,15,29,1,13,5.916999999999995,16,30,116,109,7,115,8.722999999999994,0.122,0.427,6.282999999999995,20,1,4,14,43,1,4,24,2,0.5,18,3,7,L,0.20286046511627906,0.122,0.10675,0.26179166666666664
2,15,30,1,12,7.197999999999994,15,40,45,105,18,44,9.271999999999993,1.4029999999999991,0.183,0.061,20,3,1,1,50,6,1,1,5,0,18,4.5,7,L,0.18544,0.23383333333333334,0.183,0.061
2,16,31,1,14,7.563999999999994,18,40,85,97,96,89,9.027999999999993,0.7929999999999997,1.463999999999999,0.6099999999999999,20,4,9,2,51,4,12,3,3,0.5,20,2.75,7,L,0.17701960784313725,0.19824999999999998,0.122,0.20333333333333334
2,16,32,1,3,4.269999999999997,8,24,22,23,112,13,6.465999999999996,2.1959999999999984,5.916999999999995,2.3179999999999983,16,6,16,6,38,6,30,9,5,0.5,38,5,7,L,0.1701578947368421,0.36599999999999994,0.19723333333333332,0.25755555555555554
2,17,33,1,3,5.123999999999996,13,25,29,113,91,116,7.624999999999995,3.781999999999997,1.2199999999999993,0.488,20,15,7,4,38,25,7,4,5,0,12,3,7,L,0.2006578947368421,0.15128,0.17428571428571427,0.122
2,17,34,1,12,3.476999999999997,10,22,42,1,8,71,8.539999999999994,3.537999999999997,3.720999999999997,1.1589999999999994,20,14,15,4,42,22,18,5,5,0,21,5.25,7,L,0.2033333333333333,0.1608181818181818,0.20672222222222222,0.23179999999999998
2,18,35,1,1,7.502999999999994,18,39,82,75,117,114,7.8689999999999936,1.0979999999999994,1.646999999999999,0.7319999999999998,20,5,3,1,41,6,5,1,3,0,10,2.5,7,L,0.1919268292682927,0.183,0.32939999999999997,0.7319999999999998
2,18,36,1,12,6.343999999999995,15,31,9,47,42,87,8.661999999999994,0.7929999999999997,0.366,2.1959999999999984,20,3,2,7,41,3,2,9,5,0,19,4.75,7,L,0.21126829268292682,0.2643333333333333,0.183,0.24399999999999997
2,19,37,1,13,4.574999999999997,13,26,114,113,18,24,8.417999999999994,4.513999999999997,3.720999999999997,1.0979999999999994,20,9,10,4,42,13,15,4,2,0,16,4,7,L,0.20042857142857143,0.3472307692307692,0.24806666666666663,0.27449999999999997
2,19,38,1,3,4.6969999999999965,15,28,30,25,2,6,7.624999999999995,2.2569999999999983,12.38299999999999,1.8909999999999987,20,9,18,9,44,11,53,13,5,0,22,5.5,7,L,0.17329545454545453,0.20518181818181816,0.23364150943396222,0.14546153846153845
2,20,39,1,8,6.343999999999995,16,39,7,97,8,106,6.770999999999995,9.820999999999993,5.916999999999995,5.855999999999995,17,17,16,13,40,41,28,25,2,0,16,4,7,L,0.16927499999999998,0.23953658536585362,0.21132142857142855,0.23423999999999995
2,20,40,1,15,5.977999999999995,15,30,109,113,30,69,8.661999999999994,2.0739999999999985,0.427,0.6709999999999998,20,10,1,4,38,11,1,4,6,0,13,3.25,7,L,0.22794736842105262,0.18854545454545454,0.427,0.16775
3,1,1,0,9,6.099999999999995,16,40,65,17,98,19,7.990999999999994,1.646999999999999,0.488,1.646999999999999,20,7,1,3,52,8,1,4,4,0,18,4.5,7,L,0.1536730769230769,0.205875,0.488,0.4117499999999999
3,1,2,0,10,7.563999999999994,17,36,88,87,92,35,8.539999999999994,1.0979999999999994,2.683999999999998,0.8539999999999996,20,5,12,5,41,6,16,5,3,0.5,23,3.5,7,L,0.20829268292682926,0.183,0.16775,0.17079999999999998
3,2,3,0,9,4.208999999999997,14,25,13,67,68,84,12.809999999999992,0.061,0.061,0.7319999999999998,20,1,1,4,53,1,1,4,4,0,17,4.25,7,L,0.24169811320754714,0.061,0.061,0.183
3,2,4,0,6,8.356999999999994,17,30,60,10,8,112,10.430999999999992,1.2199999999999993,2.2569999999999983,2.744999999999998,20,6,9,7,39,7,12,9,6,0,18,4.5,7,L,0.2674615384615384,0.1742857142857143,0.18808333333333332,0.30499999999999994
3,3,5,0,5,4.879999999999996,17,25,46,71,111,64,6.343999999999996,1.646999999999999,0.6709999999999998,1.0369999999999995,20,6,2,4,33,6,2,4,5,0,15,3.75,7,L,0.19224242424242424,0.27449999999999997,0.33549999999999996,0.25925
3,3,6,0,3,8.356999999999994,11,37,32,94,108,22,11.467999999999991,0.244,1.585999999999999,0.183,20,1,7,2,52,1,9,2,5,0,16,4,7,L,0.22053846153846152,0.244,0.17622222222222222,0.0915
3,4,7,0,10,4.086999999999997,15,26,101,85,18,14,4.879999999999997,0.6099999999999999,1.524999999999999,3.1719999999999975,18,6,5,11,30,6,5,17,3,0,17,4.25,7,L,0.16266666666666665,0.10166666666666667,0.30499999999999994,0.18658823529411764
3,4,8,0,8,5.916999999999995,17,32,55,40,117,6,6.343999999999995,3.2939999999999974,0.8539999999999996,1.646999999999999,18,10,6,8,33,12,8,9,2,0,17,4.25,7,L,0.19224242424242424,0.27449999999999997,0.10675,0.183
3,5,9,0,4,6.038999999999995,15,33,99,68,4,102,6.160999999999995,5.428999999999996,2.3179999999999983,3.720999999999997,16,15,8,9,34,24,10,13,2,0,14,3.5,7,L,0.18120588235294116,0.22620833333333332,0.23179999999999998,0.2862307692307692
3,5,10,0,8,4.635999999999997,12,20,119,118,33,115,11.406999999999991,0.305,0.7319999999999998,0.183,20,2,3,2,39,2,3,2,2,0.5,17,2.75,7,L,0.2924871794871794,0.1525,0.244,0.0915
3,6,11,0,3,5.428999999999996,14,29,2,27,68,97,9.820999999999993,0.427,0.7319999999999998,0.7319999999999998,20,3,5,3,47,3,6,3,5,0,17,4.25,7,L,0.20895744680851064,0.14233333333333334,0.122,0.244
3,6,12,0,5,2.9889999999999977,10,21,109,93,115,111,4.513999999999997,2.0129999999999986,2.0129999999999986,0.7319999999999998,15,8,7,2,26,12,8,2,5,0.5,15,2.25,7,L,0.17361538461538462,0.16774999999999998,0.251625,0.366
3,7,13,1,11,5.611999999999996,14,34,71,13,18,17,7.197999999999995,0.7929999999999997,1.8299999999999987,1.524999999999999,20,2,10,4,40,2,12,4,4,0.5,40,5.5,7,L,0.17995,0.3964999999999999,0.1525,0.38124999999999987
3,7,14,1,1,7.197999999999994,16,30,47,46,114,7,8.112999999999994,4.818999999999996,1.9519999999999986,1.7079999999999989,18,13,5,7,34,18,8,7,3,0,18,4.5,7,L,0.23861764705882352,0.2677222222222222,0.244,0.24399999999999997
3,8,15,1,12,6.709999999999995,14,40,105,40,78,10,9.088999999999993,1.9519999999999986,1.0979999999999994,1.2809999999999993,20,7,3,4,50,8,4,5,5,0,16,4,7,L,0.18178,0.24399999999999997,0.27449999999999997,0.2562
3,8,16,1,3,3.0499999999999976,12,15,113,35,120,51,4.147999999999997,1.2199999999999993,0.7319999999999998,0.8539999999999996,14,3,3,3,18,3,4,3,5,0,13,3.25,7,L,0.23044444444444445,0.40666666666666645,0.183,0.2846666666666666
3,9,17,1,15,3.476999999999997,16,22,13,19,20,108,5.184999999999996,0.061,1.8299999999999987,0.061,20,1,7,1,31,1,12,1,6,0.5,38,5,7,L,0.16725806451612904,0.061,0.1525,0.061
3,9,18,1,11,5.916999999999995,18,31,71,120,3,61,7.685999999999995,0.9759999999999995,0.183,0.061,20,3,1,1,39,3,1,1,4,0,16,4,7,L,0.19707692307692307,0.3253333333333333,0.183,0.061
3,10,19,1,1,7.807999999999994,16,40,43,63,65,67,10.125999999999992,0.9759999999999995,1.646999999999999,1.585999999999999,20,4,6,5,51,4,8,6,3,0.5,29,4.25,7,L,0.19854901960784313,0.244,0.20587499999999997,0.2643333333333333
3,10,20,1,7,4.452999999999997,12,21,98,86,27,87,7.8079999999999945,3.842999999999997,1.2199999999999993,0.6709999999999998,20,10,5,5,36,15,5,5,6,0,13,3.25,7,L,0.21688888888888888,0.25619999999999993,0.244,0.13419999999999999
3,11,21,1,2,5.428999999999996,19,33,96,43,58,49,10.186999999999992,0.7319999999999998,0.427,0.061,20,2,3,1,56,3,3,1,4,0,16,4,7,L,0.1819107142857143,0.24399999999999997,0.14233333333333334,0.061
3,11,22,1,3,5.428999999999996,18,36,30,68,27,8,6.831999999999995,1.3419999999999992,0.244,0.244,20,5,2,1,47,8,2,1,5,0,20,5,7,L,0.1453617021276596,0.16775,0.122,0.244
3,12,23,1,13,6.038999999999995,18,33,120,71,73,111,6.099999999999995,9.576999999999993,0.061,1.1589999999999994,19,16,1,6,34,40,1,6,2,0,11,2.75,7,L,0.17941176470588235,0.23942499999999997,0.061,0.19316666666666665
3,12,24,1,15,4.6969999999999965,14,29,40,15,16,18,5.977999999999996,2.2569999999999983,0.061,0.8539999999999996,20,9,1,5,36,13,1,6,6,0.5,41,5.75,7,L,0.16605555555555554,0.17361538461538462,0.061,0.14233333333333334
3,13,25,1,15,5.123999999999996,17,32,17,19,84,64,7.990999999999994,0.244,2.561999999999998,0.7319999999999998,20,3,8,4,46,3,11,4,6,0,19,4.75,7,L,0.17371739130434782,0.08133333333333333,0.23290909090909087,0.183
3,13,26,1,12,4.025999999999997,13,22,95,38,88,49,4.940999999999997,2.8669999999999978,2.1959999999999984,0.5489999999999999,17,11,8,2,26,16,10,2,5,0,15,3.75,7,L,0.19003846153846154,0.1791875,0.2196,0.27449999999999997
3,14,27,1,8,4.635999999999997,15,33,99,66,25,21,6.465999999999996,2.2569999999999983,1.8299999999999987,2.744999999999998,20,11,5,10,40,16,6,12,2,0,17,4.25,7,L,0.16165,0.1410625,0.30499999999999994,0.22875
3,14,28,1,7,4.574999999999997,14,25,6,9,7,38,5.123999999999997,0.7929999999999997,7.258999999999994,0.488,18,4,13,3,29,4,29,4,6,0.5,41,5.75,7,L,0.17668965517241378,0.19824999999999998,0.2503103448275862,0.122
3,15,29,1,13,6.282999999999995,16,38,118,37,117,12,6.587999999999995,0.6709999999999998,0.8539999999999996,1.3419999999999992,18,1,3,1,40,1,3,1,2,0,15,3.75,7,L,0.16469999999999999,0.6709999999999998,0.2846666666666667,1.3419999999999992
3,15,30,1,1,6.709999999999995,17,40,79,24,27,74,14.029999999999989,0.5489999999999999,1.585999999999999,0.366,20,3,4,2,77,3,5,2,3,0,17,4.25,7,L,0.18220779220779218,0.183,0.3171999999999999,0.183
3,16,31,1,2,7.8689999999999936,14,38,53,111,112,13,7.990999999999993,1.7689999999999988,2.0739999999999985,5.184999999999996,15,5,9,12,39,7,12,21,4,0,14,3.5,7,L,0.20489743589743586,0.25271428571428567,0.17283333333333334,0.24690476190476188
3,16,32,1,3,5.062999999999996,14,30,66,63,99,94,7.197999999999995,5.001999999999996,1.2809999999999993,1.9519999999999986,20,14,3,4,43,28,3,7,5,0,13,3.25,7,L,0.1673953488372093,0.17864285714285713,0.427,0.2788571428571428
3,17,33,1,13,8.966999999999993,18,48,19,73,119,74,12.992999999999991,2.0739999999999985,0.427,1.7079999999999989,20,7,3,7,65,9,3,9,2,0,14,3.5,7,L,0.19989230769230767,0.23044444444444442,0.14233333333333334,0.18977777777777777
3,17,34,1,8,7.563999999999994,15,35,105,98,101,29,8.417999999999994,0.183,3.781999999999997,2.1959999999999984,18,1,12,6,39,1,16,7,2,0.5,17,2.75,7,L,0.21584615384615383,0.183,0.23637499999999997,0.31371428571428567
3,18,35,1,8,7.807999999999994,17,39,104,13,55,53,8.234999999999994,0.9149999999999996,0.9149999999999996,1.2809999999999993,19,3,4,6,41,3,5,6,2,0,16,4,7,L,0.20085365853658535,0.305,0.183,0.2135
3,18,36,1,1,5.123999999999996,14,27,79,84,83,109,9.515999999999993,0.061,0.122,2.744999999999998,20,1,2,6,43,1,2,10,3,0.5,20,2.75,7,L,0.22130232558139531,0.061,0.061,0.27449999999999997
3,19,37,1,3,4.940999999999996,18,31,22,65,36,18,7.441999999999995,1.8909999999999987,0.122,1.524999999999999,20,6,1,6,41,9,1,11,5,0,21,5.25,7,L,0.18151219512195121,0.2101111111111111,0.122,0.13863636363636364
3,19,38,1,7,4.452999999999997,14,25,10,5,58,55,4.574999999999997,3.781999999999997,0.5489999999999999,1.3419999999999992,15,11,1,7,26,19,1,7,6,0,20,5,7,L,0.17596153846153845,0.19905263157894737,0.5489999999999999,0.1917142857142857
3,20,39,1,7,3.842999999999997,14,20,1,55,30,105,15.371999999999987,0.9149999999999996,0.122,0.244,20,4,2,1,71,4,2,1,6,0,17,4.25,7,L,0.2165070422535211,0.22875,0.061,0.244
3,20,40,1,12,5.428999999999996,15,30,38,95,110,43,5.855999999999995,0.9759999999999995,0.6709999999999998,0.366,17,4,1,1,32,4,1,1,5,0,15,3.75,7,L,0.183,0.244,0.6709999999999998,0.366
4,1,1,0,1,6.770999999999995,14,27,57,84,99,15,8.783999999999994,0.122,3.9649999999999967,0.244,20,1,9,1,37,1,15,1,3,0,15,3.75,7,L,0.2374054054054054,0.122,0.2643333333333333,0.244
4,1,2,0,10,5.7949999999999955,15,30,93,94,88,36,7.929999999999994,0.366,0.8539999999999996,1.463999999999999,20,3,4,7,39,3,4,7,3,0.5,23,3.5,7,L,0.2033333333333333,0.122,0.2135,0.20914285714285713
4,2,3,0,2,6.160999999999995,17,31,96,56,92,85,8.051999999999994,1.8299999999999987,3.903999999999997,0.6709999999999998,20,8,8,4,39,8,17,4,4,0.5,22,3.25,7,L,0.20646153846153845,0.22874999999999998,0.2296470588235294,0.16775
4,2,4,0,5,2.500999999999998,10,12,38,80,17,106,6.587999999999996,0.183,0.6099999999999999,0.8539999999999996,20,1,3,2,33,1,4,3,5,0,16,4,7,L,0.19963636363636364,0.183,0.1525,0.2846666666666667
4,3,5,0,1,6.587999999999995,17,35,83,82,120,111,10.796999999999992,0.427,2.1349999999999985,6.282999999999995,20,4,5,12,53,4,5,27,3,0,10,2.5,7,L,0.20371698113207545,0.10675,0.4269999999999999,0.2327037037037037
4,3,6,0,4,5.428999999999996,16,30,86,93,26,31,9.393999999999993,4.635999999999997,1.8909999999999987,1.0979999999999994,20,12,12,6,46,18,14,6,2,0,16,4,7,L,0.20421739130434782,0.25755555555555554,0.13507142857142856,0.183
4,4,7,0,5,6.770999999999995,15,33,42,19,41,57,6.8319999999999945,3.4159999999999973,0.244,0.122,16,8,1,1,34,12,1,1,5,0,20,5,7,L,0.20094117647058823,0.2846666666666666,0.244,0.122
4,4,8,0,9,5.611999999999996,16,31,69,120,79,30,6.404999999999996,1.8299999999999987,1.3419999999999992,3.0499999999999976,19,6,5,13,34,8,5,16,4,0,14,3.5,7,L,0.18838235294117647,0.22874999999999998,0.26839999999999997,0.190625
4,5,9,0,3,7.807999999999994,15,35,22,26,17,32,8.600999999999994,0.305,0.5489999999999999,1.463999999999999,17,2,1,2,38,2,1,2,5,0,22,5.5,7,L,0.22634210526315787,0.1525,0.5489999999999999,0.7319999999999995
4,5,10,0,5,3.2939999999999974,13,20,44,5,110,53,5.489999999999996,13.35899999999999,0.488,1.1589999999999994,20,18,4,5,30,64,4,5,5,0,17,4.25,7,L,0.18299999999999997,0.20873437499999997,0.122,0.23179999999999998
4,6,11,0,7,5.062999999999996,16,26,104,61,102,107,12.68799999999999,0.6099999999999999,0.061,0.427,20,1,1,2,62,1,1,2,6,0.5,16,2.5,7,L,0.20464516129032256,0.6099999999999999,0.061,0.2135
4,6,12,0,8,6.038999999999995,17,35,114,116,118,2,6.099999999999995,5.489999999999996,1.8299999999999987,0.7319999999999998,18,11,7,3,36,19,9,3,2,0.5,18,3,7,L,0.16944444444444445,0.2889473684210526,0.2033333333333333,0.244
4,7,13,1,1,6.8929999999999945,16,38,80,19,32,59,7.8689999999999944,1.0979999999999994,4.208999999999997,0.7929999999999997,20,2,10,3,44,2,15,3,3,0,18,4.5,7,L,0.17884090909090908,0.5489999999999999,0.28059999999999996,0.2643333333333333
4,7,14,1,13,5.428999999999996,15,25,110,46,45,38,7.136999999999995,2.3179999999999983,1.0369999999999995,1.0369999999999995,20,4,4,4,34,7,4,4,2,0.5,32,4.25,7,L,0.20991176470588235,0.33114285714285713,0.25925,0.25925
4,8,15,1,3,4.086999999999997,15,26,29,26,24,36,4.269999999999997,1.2199999999999993,4.574999999999997,1.2809999999999993,16,5,13,5,27,7,20,5,5,0.5,36,5.25,7,L,0.15814814814814815,0.1742857142857143,0.22874999999999998,0.2562
4,8,16,1,1,4.574999999999997,13,29,84,58,82,81,6.404999999999996,1.2809999999999993,1.7079999999999989,0.366,19,4,5,2,38,4,9,2,3,0.5,22,3.25,7,L,0.16855263157894737,0.32025,0.18977777777777777,0.183
4,9,17,1,11,4.452999999999997,10,23,65,61,44,47,6.526999999999996,0.122,1.524999999999999,0.244,16,1,5,2,29,1,5,2,4,0,18,4.5,7,L,0.22506896551724137,0.122,0.305,0.122
4,9,18,1,13,6.282999999999995,16,35,111,52,112,9,8.417999999999994,1.8299999999999987,1.1589999999999994,0.7319999999999998,20,6,5,3,48,8,5,3,2,0,14,3.5,7,L,0.175375,0.22875,0.2318,0.24399999999999997
4,10,19,1,11,2.9889999999999977,11,19,94,93,90,15,4.452999999999997,0.6099999999999999,3.3549999999999973,2.2569999999999983,15,3,9,8,24,4,14,8,4,0.5,24,3.75,7,L,0.18554166666666666,0.1525,0.2396428571428571,0.28212499999999996
4,10,20,1,7,3.598999999999997,12,22,1,77,9,119,13.968999999999989,0.305,0.122,0.122,20,4,1,1,72,4,1,1,6,0,17,4.25,7,L,0.19401388888888887,0.07625,0.122,0.122
4,11,21,1,14,8.600999999999994,14,40,60,55,99,95,10.430999999999992,0.9759999999999995,0.9149999999999996,1.463999999999999,18,6,4,7,45,7,8,8,3,0,13,3.25,7,L,0.23179999999999995,0.13942857142857143,0.114375,0.183
4,11,22,1,7,3.659999999999997,11,24,7,8,77,74,3.720999999999997,0.427,4.330999999999997,0.061,12,2,10,1,25,2,19,1,6,0,18,4.5,7,L,0.14884,0.2135,0.22794736842105262,0.061
4,12,23,1,13,6.8929999999999945,16,36,112,35,34,23,7.136999999999994,4.818999999999996,0.8539999999999996,0.122,19,13,7,1,39,17,7,1,2,0,18,4.5,7,L,0.183,0.2834705882352941,0.122,0.122
4,12,24,1,12,7.563999999999994,17,37,5,45,41,46,8.234999999999994,1.3419999999999992,0.061,0.183,20,7,1,2,41,8,1,2,5,0.5,36,5.25,7,L,0.20085365853658535,0.16775,0.061,0.0915
4,13,25,1,2,5.489999999999996,16,32,57,1,112,53,6.038999999999996,0.427,0.7319999999999998,0.5489999999999999,19,4,5,3,35,4,6,3,4,0,16,4,7,L,0.17254285714285714,0.10675,0.122,0.183
4,13,26,1,11,5.489999999999996,14,30,70,42,16,106,7.8689999999999944,2.500999999999998,0.9759999999999995,0.122,20,8,6,2,40,11,7,2,4,0,17,4.25,7,L,0.19672499999999998,0.22736363636363635,0.13942857142857143,0.061
4,14,27,1,14,4.879999999999996,12,28,87,88,89,62,5.733999999999996,1.0979999999999994,0.7319999999999998,0.488,18,4,5,2,35,4,5,2,3,0.5,22,3.25,7,L,0.1638285714285714,0.27449999999999997,0.1464,0.244
4,14,28,1,1,4.635999999999997,13,21,1,82,3,27,12.44399999999999,3.2329999999999974,0.7319999999999998,0.305,20,13,4,2,50,16,4,2,3,0,20,5,7,L,0.24887999999999996,0.20206249999999998,0.183,0.1525
4,15,29,1,14,8.417999999999994,17,44,93,95,107,108,8.722999999999994,3.903999999999997,2.8669999999999978,0.8539999999999996,19,12,10,2,46,17,11,2,3,0,10,2.5,7,L,0.1896304347826087,0.2296470588235294,0.2606363636363636,0.427
4,15,30,1,15,3.3549999999999973,11,18,15,19,78,83,7.990999999999994,2.439999999999998,2.622999999999998,1.585999999999999,20,6,9,5,44,6,12,6,6,0,18,4.5,7,L,0.18161363636363637,0.40666666666666657,0.21858333333333332,0.2643333333333333
4,16,31,1,8,8.783999999999994,12,43,72,63,68,102,9.454999999999993,2.683999999999998,0.244,0.122,15,8,1,1,46,9,1,1,2,0.5,26,3.5,7,L,0.20554347826086955,0.29822222222222217,0.244,0.122
4,16,32,1,13,4.940999999999996,15,26,73,52,110,25,7.014999999999995,1.585999999999999,1.7689999999999988,0.9149999999999996,20,4,4,4,31,7,5,5,2,0,14,3.5,7,L,0.22629032258064513,0.22657142857142856,0.35379999999999984,0.183
4,17,33,1,7,9.088999999999993,17,50,26,12,4,1,10.186999999999992,0.183,1.463999999999999,6.404999999999995,20,2,5,13,55,2,5,30,6,0.5,41,5.75,7,L,0.1852181818181818,0.0915,0.2927999999999999,0.2135
4,17,34,1,11,5.428999999999996,16,32,21,71,65,116,6.7709999999999955,2.561999999999998,3.720999999999997,0.122,20,7,12,1,37,9,20,1,4,0,16,4,7,L,0.183,0.2846666666666666,0.18605,0.122
4,18,35,1,3,8.539999999999994,17,35,63,29,34,101,10.430999999999992,0.7929999999999997,0.122,0.9149999999999996,20,6,1,3,45,7,1,3,5,0,16,4,7,L,0.23179999999999998,0.11328571428571428,0.122,0.305
4,18,36,1,14,3.2939999999999974,10,19,94,50,90,111,3.6599999999999975,3.903999999999997,0.061,0.244,13,10,1,1,22,18,1,1,3,0,12,3,7,L,0.16636363636363635,0.21688888888888888,0.061,0.244
4,19,37,1,15,7.136999999999994,11,38,34,96,25,23,9.881999999999993,0.9149999999999996,1.9519999999999986,1.2809999999999993,18,4,4,6,48,4,5,7,6,0,19,4.75,7,L,0.20587499999999997,0.22875,0.39039999999999986,0.183
4,19,38,1,7,4.025999999999997,15,28,2,1,11,116,5.550999999999997,4.269999999999997,0.061,0.488,20,9,1,2,36,14,1,2,6,0.5,38,5,7,L,0.15419444444444444,0.30499999999999994,0.061,0.244
4,20,39,1,3,4.208999999999997,12,24,66,27,32,15,4.757999999999997,1.7079999999999989,2.9889999999999977,3.3549999999999973,13,3,9,14,26,3,12,18,5,0,20,5,7,L,0.183,0.569333333333333,0.24908333333333332,0.18638888888888885
4,20,40,1,1,5.245999999999996,14,30,77,83,37,115,5.855999999999996,0.244,6.099999999999995,0.061,16,2,16,1,32,2,34,1,3,0,13,3.25,7,L,0.183,0.122,0.17941176470588235,0.061
5,1,1,0,5,4.452999999999997,14,26,47,103,45,48,7.380999999999995,0.6709999999999998,0.122,0.488,20,1,2,4,34,2,2,4,5,0.5,32,4.25,7,L,0.2170882352941176,0.33549999999999996,0.061,0.122
5,1,2,0,1,5.7949999999999955,18,32,75,84,52,73,8.844999999999994,0.6099999999999999,1.7689999999999988,0.122,20,3,7,2,43,3,8,2,3,0.5,22,3.25,7,L,0.20569767441860462,0.20333333333333334,0.221125,0.061
5,2,3,0,10,2.9889999999999977,12,16,96,35,15,92,5.855999999999995,6.160999999999995,1.2809999999999993,0.061,20,12,6,1,30,21,6,1,3,0,17,4.25,7,L,0.19519999999999998,0.29338095238095235,0.2135,0.061
5,2,4,0,6,4.635999999999997,12,22,2,9,81,53,5.245999999999997,4.7579999999999965,0.183,0.183,15,8,1,2,25,12,1,2,6,0,19,4.75,7,L,0.20983999999999997,0.3964999999999999,0.183,0.0915
5,3,5,0,5,8.356999999999994,18,45,54,40,42,8,9.088999999999993,1.7689999999999988,0.6709999999999998,1.9519999999999986,20,6,4,7,47,10,4,8,5,0,20,5,7,L,0.19338297872340424,0.1769,0.16775,0.244
5,3,6,0,9,6.282999999999995,14,39,67,64,35,65,6.953999999999995,0.7929999999999997,0.5489999999999999,2.9279999999999977,16,4,4,8,41,4,5,11,4,0.5,29,4.25,7,L,0.16960975609756096,0.19824999999999998,0.1098,0.26618181818181813
5,4,7,0,6,3.3549999999999973,9,14,1,5,6,29,12.01699999999999,0.122,0.183,0.6709999999999998,20,2,3,3,52,2,3,3,6,0.5,41,5.75,7,L,0.2310961538461538,0.061,0.061,0.22366666666666665
5,4,8,0,2,4.208999999999997,13,21,58,90,102,108,4.513999999999997,7.563999999999994,2.622999999999998,0.366,16,15,10,3,25,34,15,3,4,0,11,2.75,7,L,0.18056,0.2224705882352941,0.17486666666666667,0.122
5,5,9,0,6,3.1109999999999975,9,16,8,4,28,53,3.2939999999999974,6.709999999999995,0.366,0.061,11,15,3,1,18,24,3,1,6,0,21,5.25,7,L,0.183,0.2795833333333333,0.122,0.061
5,5,10,0,7,8.356999999999994,14,35,18,15,76,62,8.783999999999994,0.8539999999999996,6.221999999999995,0.5489999999999999,18,3,12,2,39,3,21,2,6,0,19,4.75,7,L,0.2252307692307692,0.2846666666666667,0.29628571428571426,0.27449999999999997
5,6,11,0,7,7.502999999999994,16,31,20,97,22,19,10.613999999999992,3.2939999999999974,0.6099999999999999,0.122,20,7,3,1,48,7,3,1,6,0.5,38,5,7,L,0.221125,0.4705714285714284,0.20333333333333334,0.122
5,6,12,0,3,7.746999999999994,17,40,36,25,9,8,8.051999999999994,1.646999999999999,7.319999999999994,3.2939999999999974,18,7,16,11,41,7,36,11,5,0,22,5.5,7,L,0.196390243902439,0.2352857142857143,0.2033333333333333,0.29945454545454536
5,7,13,1,15,3.598999999999997,13,20,120,71,96,23,6.404999999999995,1.7689999999999988,0.9759999999999995,0.8539999999999996,20,7,3,4,34,9,3,4,6,0,15,3.75,7,L,0.18838235294117647,0.19655555555555554,0.3253333333333333,0.2135
5,7,14,1,2,3.659999999999997,12,18,52,53,37,44,4.391999999999997,1.2809999999999993,1.7079999999999989,1.0369999999999995,15,8,5,5,21,9,5,6,4,0,18,4.5,7,L,0.20914285714285713,0.14233333333333334,0.34159999999999996,0.17283333333333334
5,8,15,1,2,4.025999999999997,11,19,58,39,89,6,5.428999999999997,1.7079999999999989,7.014999999999994,0.305,18,8,16,2,26,9,33,2,4,0,18,4.5,7,L,0.20880769230769228,0.18977777777777777,0.21257575757575753,0.1525
5,8,16,1,3,4.818999999999996,14,26,61,17,28,19,9.820999999999993,2.3789999999999982,0.244,0.5489999999999999,20,8,2,4,45,9,2,4,5,0,21,5.25,7,L,0.21824444444444444,0.2643333333333333,0.122,0.13724999999999998
5,9,17,1,1,7.685999999999994,16,39,74,1,80,2,10.552999999999992,1.2809999999999993,2.0129999999999986,0.5489999999999999,20,8,6,4,49,8,6,4,3,0,18,4.5,7,L,0.2153673469387755,0.160125,0.3354999999999999,0.13724999999999998
5,9,18,1,2,4.818999999999996,13,22,113,90,93,24,10.857999999999992,1.2199999999999993,0.5489999999999999,0.427,20,6,3,2,45,6,3,2,4,0,14,3.5,7,L,0.24128888888888889,0.20333333333333334,0.183,0.2135
5,10,19,1,14,6.343999999999995,17,36,87,42,110,62,7.014999999999995,1.7689999999999988,0.8539999999999996,1.524999999999999,20,7,3,4,42,7,3,4,3,0,14,3.5,7,L,0.16702380952380952,0.25271428571428567,0.2846666666666667,0.3812499999999999
5,10,20,1,1,4.208999999999997,16,31,52,77,82,33,6.465999999999996,1.646999999999999,1.646999999999999,0.122,20,6,9,1,36,9,11,1,3,0,15,3.75,7,L,0.1796111111111111,0.183,0.14972727272727274,0.122
5,11,21,1,1,6.160999999999995,15,30,79,53,84,117,8.295999999999994,1.463999999999999,3.4159999999999973,0.427,19,6,9,3,36,7,14,3,3,0,12,3,7,L,0.2304444444444444,0.20914285714285713,0.24399999999999997,0.14233333333333334
5,11,22,1,14,5.7339999999999955,14,31,86,91,93,16,6.221999999999996,1.4029999999999991,0.6709999999999998,1.585999999999999,16,6,3,6,33,8,3,9,3,0.5,24,3.75,7,L,0.18854545454545454,0.175375,0.22366666666666665,0.17622222222222222
5,12,23,1,7,5.428999999999996,16,28,8,6,90,5,6.526999999999996,3.0499999999999976,0.305,5.184999999999996,20,10,1,10,33,17,1,21,6,0.5,39,5.25,7,L,0.1977878787878788,0.17941176470588235,0.305,0.24690476190476188
5,12,24,1,3,5.367999999999996,14,35,36,69,118,83,8.295999999999994,0.7319999999999998,1.463999999999999,0.9149999999999996,20,1,3,4,47,1,3,5,5,0,14,3.5,7,L,0.17651063829787234,0.7319999999999998,0.4879999999999999,0.183
5,13,25,1,1,5.123999999999996,14,30,114,84,119,82,5.916999999999996,2.500999999999998,0.5489999999999999,0.7929999999999997,15,10,2,3,31,14,2,3,3,0,10,2.5,7,L,0.19087096774193546,0.17864285714285713,0.27449999999999997,0.2643333333333333
5,13,26,1,11,5.977999999999995,17,37,64,65,94,96,8.844999999999994,0.244,1.8909999999999987,1.585999999999999,20,2,8,3,55,2,10,3,4,0,14,3.5,7,L,0.1608181818181818,0.122,0.1891,0.5286666666666666
5,14,27,1,11,5.7949999999999955,15,34,70,110,41,42,7.685999999999995,0.7319999999999998,1.585999999999999,0.6709999999999998,17,2,5,3,36,2,9,3,4,0,16,4,7,L,0.21349999999999997,0.366,0.17622222222222222,0.22366666666666665
5,14,28,1,7,2.805999999999998,13,20,33,87,30,2,8.539999999999994,0.366,0.244,0.305,20,2,1,4,42,2,1,4,6,0,19,4.75,7,L,0.2033333333333333,0.183,0.244,0.07625
5,15,29,1,15,5.001999999999996,13,26,32,29,13,14,8.600999999999994,2.561999999999998,0.122,0.5489999999999999,20,11,1,2,35,17,1,2,6,0,22,5.5,7,L,0.2457428571428571,0.15070588235294116,0.122,0.27449999999999997
5,15,30,1,12,4.6969999999999965,13,23,83,37,81,112,5.489999999999997,2.8669999999999978,3.1109999999999975,2.3789999999999982,15,11,9,9,26,14,14,14,5,0,13,3.25,7,L,0.21115384615384614,0.20478571428571427,0.2222142857142857,0.1699285714285714
5,16,31,1,15,3.476999999999997,12,21,106,64,72,24,8.722999999999994,0.305,0.366,3.537999999999997,20,1,1,10,44,1,2,18,6,0,16,4,7,L,0.19824999999999998,0.305,0.183,0.19655555555555554
5,16,32,1,7,7.014999999999994,16,31,32,74,36,73,10.125999999999992,0.122,1.4029999999999991,1.0369999999999995,20,1,6,5,43,1,8,6,6,0,16,4,7,L,0.23548837209302326,0.122,0.175375,0.1728333333333333
5,17,33,1,11,8.295999999999994,16,37,113,80,67,15,9.942999999999993,1.1589999999999994,0.122,0.183,20,6,2,1,44,7,2,1,4,0,15,3.75,7,L,0.22597727272727272,0.1655714285714286,0.061,0.183
5,17,34,1,8,5.123999999999996,14,30,101,54,43,45,6.160999999999996,1.7079999999999989,1.8299999999999987,1.8299999999999987,19,7,7,8,35,11,8,11,2,0,16,4,7,L,0.17602857142857142,0.15527272727272726,0.22875,0.16636363636363635
5,18,35,1,7,5.428999999999996,17,36,63,42,11,68,6.526999999999996,1.2809999999999993,0.427,1.9519999999999986,20,6,2,5,41,8,2,5,6,0,19,4.75,7,L,0.15919512195121951,0.160125,0.2135,0.39039999999999986
5,18,36,1,1,5.611999999999996,16,29,29,17,13,76,6.343999999999996,0.7929999999999997,6.221999999999995,0.122,18,4,14,2,32,5,26,2,3,0,20,5,7,L,0.19824999999999998,0.1586,0.23930769230769228,0.061
5,19,37,1,1,7.197999999999994,19,34,78,63,29,4,9.881999999999993,0.427,1.7079999999999989,1.2199999999999993,20,2,7,6,45,2,10,9,3,0,18,4.5,7,L,0.2196,0.2135,0.1708,0.13555555555555554
5,19,38,1,15,5.062999999999996,13,23,116,42,117,91,5.6119999999999965,5.489999999999996,1.646999999999999,0.5489999999999999,15,13,8,2,25,21,9,2,6,0,12,3,7,L,0.22447999999999999,0.26142857142857134,0.183,0.27449999999999997
5,20,39,1,15,7.258999999999994,11,36,117,120,33,82,7.441999999999994,0.9149999999999996,0.305,1.3419999999999992,12,4,1,4,37,5,1,5,6,0,12,3,7,L,0.20113513513513512,0.183,0.305,0.26839999999999997
5,20,40,1,8,6.526999999999995,16,38,10,2,102,101,7.319999999999995,0.6709999999999998,0.305,1.8299999999999987,20,3,1,8,42,3,1,11,2,0,16,4,7,L,0.1742857142857143,0.22366666666666665,0.305,0.16636363636363635
6,1,1,0,8,6.282999999999995,13,27,119,109,22,29,7.014999999999995,0.061,1.524999999999999,1.463999999999999,16,1,5,6,32,1,6,6,2,0,15,3.75,7,L,0.21921875,0.061,0.25416666666666665,0.244
6,1,2,0,5,5.977999999999995,17,33,40,49,54,47,7.380999999999995,0.9759999999999995,2.1349999999999985,0.7319999999999998,20,1,8,3,38,3,9,3,5,0,18,4.5,7,L,0.19423684210526315,0.3253333333333333,0.2372222222222222,0.244
6,2,3,0,1,6.221999999999995,17,33,79,77,43,71,7.929999999999994,0.122,0.6709999999999998,5.184999999999996,20,1,3,13,43,1,3,25,3,0,15,3.75,7,L,0.18441860465116278,0.122,0.22366666666666665,0.20739999999999997
6,2,4,0,8,4.574999999999997,16,23,113,34,90,3,5.428999999999997,2.1349999999999985,0.6709999999999998,1.9519999999999986,19,8,3,5,26,13,4,7,2,0,16,4,7,L,0.2088076923076923,0.16423076923076924,0.16775,0.27885714285714286
6,3,5,0,5,3.781999999999997,16,26,107,44,82,102,5.611999999999996,2.0739999999999985,0.7319999999999998,0.9759999999999995,20,10,2,3,31,10,2,3,5,0,12,3,7,L,0.18103225806451612,0.20739999999999997,0.366,0.3253333333333333
6,3,6,0,8,7.563999999999994,19,45,24,69,35,110,9.210999999999993,0.9149999999999996,4.330999999999997,0.061,20,5,14,1,54,6,22,1,2,0,17,4.25,7,L,0.17057407407407407,0.1525,0.19686363636363635,0.061
6,4,7,0,7,6.770999999999995,17,34,22,117,27,62,8.356999999999994,3.1719999999999975,0.061,0.183,20,13,1,2,42,17,1,2,6,0,17,4.25,7,L,0.19897619047619045,0.1865882352941176,0.061,0.0915
6,4,8,0,1,5.489999999999996,17,33,77,59,84,78,6.587999999999996,1.0369999999999995,1.2199999999999993,0.183,20,2,5,2,41,2,6,2,3,0.5,22,3.25,7,L,0.1606829268292683,0.5185,0.2033333333333333,0.0915
6,5,9,0,5,3.598999999999997,17,22,2,117,53,120,10.796999999999992,0.6099999999999999,0.061,0.427,20,3,1,3,58,3,1,3,5,0,14,3.5,7,L,0.1861551724137931,0.20333333333333334,0.061,0.14233333333333334
6,5,10,0,1,6.465999999999995,14,42,77,75,99,76,6.526999999999995,1.7689999999999988,0.183,1.463999999999999,15,7,2,9,43,9,2,11,3,0.5,20,2.75,7,L,0.1517906976744186,0.19655555555555554,0.0915,0.1330909090909091
6,6,11,0,7,3.3549999999999973,13,22,18,22,13,103,3.4159999999999973,0.5489999999999999,5.062999999999996,0.427,14,3,14,1,23,3,23,1,6,0.5,38,5,7,L,0.1485217391304348,0.183,0.22013043478260869,0.427
6,6,12,0,10,6.038999999999995,15,28,86,110,34,65,9.271999999999993,0.366,2.0129999999999986,1.646999999999999,20,3,9,5,45,4,12,6,3,0,14,3.5,7,L,0.20604444444444442,0.0915,0.16775,0.27449999999999997
6,7,13,1,12,7.380999999999994,18,43,107,37,13,15,9.271999999999993,2.1349999999999985,2.744999999999998,2.0739999999999985,20,14,9,4,50,16,11,4,5,0,19,4.75,7,L,0.18544,0.1334375,0.24954545454545451,0.5184999999999998
6,7,14,1,3,4.086999999999997,15,26,110,1,30,12,6.099999999999996,2.9889999999999977,0.6709999999999998,0.244,20,11,5,1,35,15,5,1,5,0,19,4.75,7,L,0.17428571428571427,0.19926666666666668,0.13419999999999999,0.244
6,8,15,1,3,6.099999999999995,17,35,34,3,110,66,6.343999999999995,3.1109999999999975,1.524999999999999,0.9149999999999996,18,7,6,2,36,11,6,2,5,0,17,4.25,7,L,0.17622222222222222,0.28281818181818175,0.25416666666666665,0.4574999999999999
6,8,16,1,2,5.245999999999996,18,34,56,22,98,38,6.404999999999996,1.0979999999999994,4.452999999999997,0.6099999999999999,20,8,12,2,38,8,18,2,4,0,17,4.25,7,L,0.16855263157894737,0.13724999999999998,0.24738888888888888,0.30499999999999994
6,9,17,1,8,6.8929999999999945,19,43,107,63,2,39,7.563999999999995,1.3419999999999992,3.1719999999999975,0.061,20,3,12,1,49,6,14,1,2,0,17,4.25,7,L,0.15436734693877552,0.22366666666666662,0.22657142857142856,0.061
6,9,18,1,15,8.051999999999994,17,39,58,119,35,22,10.674999999999992,1.463999999999999,2.3789999999999982,0.183,20,4,7,2,48,5,9,2,6,0,17,4.25,7,L,0.2223958333333333,0.29279999999999995,0.26433333333333325,0.0915
6,10,19,1,14,7.807999999999994,12,27,85,26,33,51,8.295999999999994,0.9759999999999995,0.488,2.439999999999998,14,3,2,11,29,4,2,16,3,0,17,4.25,7,L,0.2860689655172413,0.244,0.244,0.1525
6,10,20,1,1,3.842999999999997,13,20,82,81,79,16,6.8319999999999945,3.781999999999997,4.269999999999997,0.488,20,11,14,2,32,15,28,2,3,0.5,24,3.75,7,L,0.21349999999999997,0.25213333333333326,0.1525,0.244
6,11,21,1,8,7.075999999999994,15,37,105,97,53,39,8.295999999999994,1.1589999999999994,0.244,2.2569999999999983,20,3,1,8,43,3,1,12,2,0,13,3.25,7,L,0.19293023255813951,0.3863333333333333,0.244,0.18808333333333332
6,11,22,1,14,5.855999999999995,13,34,120,89,69,30,7.441999999999995,0.244,0.5489999999999999,0.9149999999999996,20,2,1,3,43,2,1,3,3,0,14,3.5,7,L,0.17306976744186045,0.122,0.5489999999999999,0.305
6,12,23,1,14,6.8319999999999945,19,40,92,93,30,95,8.051999999999994,2.3179999999999983,1.8909999999999987,0.305,20,9,9,2,47,20,11,2,3,0.5,23,3.5,7,L,0.1713191489361702,0.1159,0.1719090909090909,0.1525
6,12,24,1,7,2.9279999999999977,14,19,10,2,3,39,5.184999999999996,2.744999999999998,0.366,4.574999999999997,20,8,3,14,32,10,3,24,6,0.5,41,5.75,7,L,0.16203125,0.27449999999999997,0.122,0.190625
6,13,25,1,7,6.648999999999995,16,34,8,1,3,78,10.979999999999992,0.427,0.9149999999999996,3.9649999999999967,20,4,6,11,57,4,6,22,6,0.5,39,5.25,7,L,0.1926315789473684,0.10675,0.1525,0.18022727272727274
6,13,26,1,8,3.903999999999997,11,22,107,28,97,27,5.7339999999999955,8.722999999999994,0.488,0.244,17,18,4,3,29,41,4,3,2,0,14,3.5,7,L,0.19772413793103447,0.21275609756097558,0.122,0.08133333333333333
6,14,27,1,15,1.7689999999999988,10,15,13,104,17,103,12.74899999999999,0.488,0.122,0.061,20,3,2,1,58,3,2,1,6,0,16,4,7,L,0.21981034482758618,0.16266666666666665,0.061,0.061
6,14,28,1,13,5.7949999999999955,13,29,118,120,3,115,10.003999999999992,1.4029999999999991,0.7929999999999997,0.427,20,3,5,3,47,3,5,4,2,0.5,18,3,7,L,0.21285106382978722,0.46766666666666656,0.1586,0.10675
6,15,29,1,11,5.7949999999999955,15,31,4,88,117,71,10.491999999999992,3.3549999999999973,0.183,0.244,20,11,1,2,47,15,1,2,4,0,15,3.75,7,L,0.22323404255319146,0.22366666666666665,0.183,0.122
6,15,30,1,1,10.308999999999992,18,49,106,74,51,73,11.467999999999991,0.122,0.244,2.3789999999999982,20,2,1,8,53,2,1,11,3,0,12,3,7,L,0.21637735849056602,0.061,0.244,0.21627272727272726
6,16,31,1,14,7.563999999999994,17,46,45,93,86,68,8.051999999999994,0.7929999999999997,3.537999999999997,0.366,18,4,9,2,47,4,16,2,3,0,15,3.75,7,L,0.1713191489361702,0.19824999999999998,0.221125,0.183
6,16,32,1,7,3.842999999999997,12,22,12,76,3,11,4.574999999999997,1.7079999999999989,0.427,1.3419999999999992,15,7,3,7,25,8,3,7,6,0.5,39,5.25,7,L,0.183,0.2135,0.14233333333333334,0.1917142857142857
6,17,33,1,2,4.025999999999997,15,32,53,59,49,22,4.818999999999997,1.1589999999999994,0.488,4.513999999999997,19,3,3,8,36,3,3,11,4,0.5,30,4.5,7,L,0.1338611111111111,0.38633333333333325,0.16266666666666665,0.4103636363636363
6,17,34,1,12,7.136999999999994,16,34,43,37,47,93,7.563999999999994,1.9519999999999986,1.3419999999999992,0.244,19,8,5,1,37,9,5,1,5,0.5,33,4.5,7,L,0.2044324324324324,0.21688888888888885,0.26839999999999997,0.244
6,18,35,1,3,6.648999999999995,15,36,30,36,26,97,8.356999999999994,0.244,2.622999999999998,1.463999999999999,20,1,9,5,50,1,9,5,5,0.5,32,4.25,7,L,0.16713999999999998,0.244,0.29144444444444445,0.29279999999999995
6,18,36,1,13,7.380999999999994,16,38,112,61,120,116,8.844999999999994,0.6099999999999999,1.524999999999999,3.1719999999999975,20,2,5,10,44,2,5,11,2,0.5,16,2.5,7,L,0.20102272727272727,0.30499999999999994,0.305,0.2883636363636363
6,19,37,1,13,5.367999999999996,15,32,120,70,32,73,5.977999999999996,2.744999999999998,3.781999999999997,0.488,18,6,13,3,35,10,22,3,2,0,14,3.5,7,L,0.1708,0.27449999999999997,0.1719090909090909,0.16266666666666665
6,19,38,1,2,3.1109999999999975,11,18,52,96,100,99,11.284999999999991,1.0369999999999995,0.9149999999999996,3.3549999999999973,20,2,3,8,48,2,4,9,4,0,11,2.75,7,L,0.23510416666666664,0.5184999999999998,0.22874999999999998,0.3727777777777777
6,20,39,1,7,3.9649999999999967,14,25,2,10,98,4,5.184999999999996,1.2809999999999993,2.9889999999999977,5.062999999999996,20,4,10,14,31,4,13,25,6,0.5,38,5,7,L,0.16725806451612904,0.3202499999999999,0.2299230769230769,0.20251999999999998
6,20,40,1,15,2.3179999999999983,12,20,16,48,14,80,3.7209999999999974,1.7689999999999988,0.061,1.7689999999999988,18,8,1,7,28,9,1,8,6,0,20,5,7,L,0.13289285714285715,0.19655555555555557,0.061,0.221125
7,1,1,0,7,6.770999999999995,16,38,53,58,92,108,8.417999999999994,3.476999999999997,0.244,0.183,20,9,2,2,42,10,2,2,6,0,13,3.25,7,L,0.20042857142857143,0.3476999999999999,0.122,0.0915
7,1,2,0,9,5.7339999999999955,14,25,71,62,70,84,7.8689999999999944,0.5489999999999999,0.427,2.3789999999999982,20,3,4,10,34,3,5,17,4,0.5,27,3.75,7,L,0.2314411764705882,0.183,0.0854,0.13994117647058824
7,2,3,0,9,3.842999999999997,15,24,66,91,5,93,5.367999999999996,4.330999999999997,1.8299999999999987,0.305,19,13,7,2,30,19,9,2,4,0,16,4,7,L,0.17893333333333333,0.22794736842105262,0.20333333333333334,0.1525
7,2,4,0,4,6.770999999999995,19,44,20,107,55,18,9.942999999999993,0.9759999999999995,0.183,0.488,20,3,2,2,55,4,2,2,2,0,18,4.5,7,L,0.18078181818181818,0.244,0.0915,0.244
7,3,5,0,6,6.343999999999995,17,33,8,4,9,88,7.075999999999995,0.122,7.685999999999994,0.5489999999999999,20,1,17,2,38,1,44,2,6,0.5,39,5.25,7,L,0.18621052631578947,0.122,0.17468181818181816,0.27449999999999997
7,3,6,0,3,8.173999999999994,15,39,33,22,17,26,8.966999999999993,1.7689999999999988,0.488,1.524999999999999,19,6,2,6,43,6,3,6,5,0,22,5.5,7,L,0.2085348837209302,0.29483333333333334,0.16266666666666665,0.25416666666666665
7,4,7,0,1,4.635999999999997,14,26,76,65,100,35,9.637999999999993,1.9519999999999986,0.366,0.488,20,4,3,5,43,8,3,5,3,0,14,3.5,7,L,0.22413953488372093,0.244,0.122,0.09759999999999999
7,4,8,0,5,7.258999999999994,15,41,40,111,8,85,9.210999999999993,1.9519999999999986,0.366,1.7079999999999989,20,8,1,6,46,9,1,7,5,0,16,4,7,L,0.2002391304347826,0.21688888888888888,0.366,0.244
7,5,9,0,9,6.221999999999995,17,41,70,25,103,66,8.417999999999994,0.427,0.8539999999999996,1.0369999999999995,20,2,2,5,59,2,2,5,4,0,15,3.75,7,L,0.14267796610169492,0.2135,0.427,0.2074
7,5,10,0,8,6.8319999999999945,17,41,110,114,119,43,7.746999999999995,4.574999999999997,0.5489999999999999,6.648999999999995,20,14,2,14,46,23,2,30,2,0.5,17,2.75,7,L,0.16841304347826086,0.19891304347826083,0.27449999999999997,0.22163333333333332
7,6,11,0,9,8.844999999999994,11,45,64,62,108,100,9.332999999999993,0.122,3.1719999999999975,0.8539999999999996,15,2,11,3,50,2,17,3,4,0,12,3,7,L,0.18666,0.061,0.18658823529411764,0.2846666666666667
7,6,12,0,8,7.563999999999994,19,41,110,109,113,42,8.600999999999994,2.500999999999998,4.635999999999997,2.1959999999999984,20,10,11,8,49,14,19,12,2,0.5,17,2.75,7,L,0.17553061224489797,0.17864285714285713,0.24399999999999997,0.183
7,7,13,1,11,6.221999999999995,18,44,66,61,5,11,6.587999999999995,0.5489999999999999,0.9759999999999995,1.0979999999999994,19,3,2,6,45,3,2,7,4,0,20,5,7,L,0.1464,0.183,0.48799999999999977,0.15685714285714283
7,7,14,1,8,5.977999999999995,15,32,108,103,43,24,6.343999999999995,0.305,1.8909999999999987,1.524999999999999,17,3,6,5,36,3,8,9,2,0,15,3.75,7,L,0.17622222222222222,0.10166666666666667,0.23637499999999997,0.16944444444444443
7,8,15,1,12,5.428999999999996,14,24,43,120,92,93,7.8079999999999945,1.7079999999999989,0.427,1.524999999999999,20,5,1,7,39,7,1,8,5,0,13,3.25,7,L,0.2002051282051282,0.24399999999999997,0.427,0.190625
7,8,16,1,7,7.441999999999994,15,37,4,8,30,102,7.746999999999994,0.366,1.0979999999999994,0.488,18,1,3,1,40,1,6,1,6,0,19,4.75,7,L,0.19367499999999999,0.366,0.183,0.488
7,9,17,1,15,5.428999999999996,19,33,22,86,32,21,9.881999999999993,1.463999999999999,2.0129999999999986,3.598999999999997,20,7,8,10,51,9,9,20,6,0,20,5,7,L,0.19376470588235292,0.16266666666666668,0.22366666666666665,0.17995
7,9,18,1,2,7.258999999999994,15,35,109,115,119,39,11.650999999999991,0.366,1.4029999999999991,1.7689999999999988,20,2,6,7,58,2,8,8,4,0.5,17,2.75,7,L,0.2008793103448276,0.183,0.175375,0.221125
7,10,19,1,15,7.563999999999994,18,41,24,92,21,103,8.783999999999994,1.9519999999999986,2.3179999999999983,0.061,20,7,12,1,49,8,17,1,6,0,17,4.25,7,L,0.17926530612244895,0.244,0.1363529411764706,0.061
7,10,20,1,1,5.123999999999996,14,29,76,73,114,3,5.428999999999996,1.2199999999999993,4.086999999999997,0.6099999999999999,16,5,9,3,31,8,15,3,3,0,14,3.5,7,L,0.1751290322580645,0.1525,0.27246666666666663,0.20333333333333334
7,11,21,1,1,7.8689999999999936,15,33,50,53,52,84,8.722999999999994,1.8909999999999987,0.488,1.7079999999999989,17,8,1,2,36,9,1,4,3,0.5,27,3.75,7,L,0.24230555555555552,0.2101111111111111,0.488,0.42699999999999994
7,11,22,1,3,2.805999999999998,14,15,26,116,96,68,10.308999999999992,0.122,0.7319999999999998,0.6709999999999998,20,1,5,3,46,1,6,3,5,0,14,3.5,7,L,0.2241086956521739,0.122,0.122,0.22366666666666665
7,12,23,1,15,4.940999999999996,12,23,16,60,19,14,6.7099999999999955,3.1719999999999975,7.319999999999994,0.7319999999999998,18,12,15,2,29,17,28,2,6,0.5,40,5.5,7,L,0.2313793103448276,0.18658823529411764,0.2614285714285714,0.366
7,12,24,1,7,4.330999999999997,16,28,3,100,1,91,6.038999999999996,3.598999999999997,1.7689999999999988,0.061,20,9,7,1,34,11,7,1,6,0,17,4.25,7,L,0.17761764705882352,0.32718181818181813,0.25271428571428567,0.061
7,13,25,1,14,2.500999999999998,11,18,1,94,100,4,2.927999999999998,0.061,2.561999999999998,0.183,13,1,5,1,21,1,8,1,3,0,17,4.25,7,L,0.13942857142857143,0.061,0.32025,0.183
7,13,26,1,12,4.147999999999997,12,22,39,41,49,37,4.879999999999997,0.5489999999999999,2.805999999999998,0.5489999999999999,18,2,11,5,28,2,13,5,5,0.5,34,4.75,7,L,0.1742857142857143,0.27449999999999997,0.21584615384615383,0.1098
7,14,27,1,1,5.916999999999995,15,36,113,74,18,112,7.685999999999995,5.184999999999996,1.8909999999999987,1.0979999999999994,20,14,8,6,47,24,9,7,3,0,13,3.25,7,L,0.16353191489361701,0.21604166666666666,0.21011111111111108,0.15685714285714286
7,14,28,1,3,5.916999999999995,14,37,27,7,98,85,7.258999999999995,1.463999999999999,0.7929999999999997,0.7319999999999998,20,9,3,1,44,9,3,1,5,0,16,4,7,L,0.16497727272727272,0.16266666666666665,0.2643333333333333,0.7319999999999998
7,15,29,1,11,9.881999999999993,13,47,72,69,106,47,10.674999999999992,2.1349999999999985,1.2809999999999993,1.8909999999999987,18,6,5,6,52,7,5,7,4,0,15,3.75,7,L,0.20528846153846153,0.3049999999999999,0.2562,0.27014285714285713
7,15,30,1,7,4.086999999999997,16,27,3,118,28,56,4.269999999999997,1.2199999999999993,0.488,1.524999999999999,18,3,1,6,29,4,1,7,6,0,17,4.25,7,L,0.14724137931034484,0.30499999999999994,0.488,0.21785714285714286
7,16,31,1,12,5.306999999999996,13,32,42,37,12,5,6.160999999999996,1.4029999999999991,2.3789999999999982,0.061,19,7,8,1,39,7,12,1,5,0,22,5.5,7,L,0.15797435897435896,0.2004285714285714,0.19824999999999998,0.061
7,16,32,1,14,7.563999999999994,17,33,91,93,101,89,7.8689999999999936,0.244,2.3179999999999983,0.427,18,2,7,4,34,2,7,4,3,0.5,20,2.75,7,L,0.2314411764705882,0.122,0.33114285714285713,0.10675
7,17,33,1,11,5.367999999999996,17,35,63,66,97,69,5.428999999999996,0.9759999999999995,1.2199999999999993,0.122,18,3,5,1,36,3,6,1,4,0.5,26,3.5,7,L,0.15080555555555555,0.32533333333333325,0.20333333333333334,0.122
7,17,34,1,15,5.611999999999996,17,29,114,53,26,73,8.295999999999994,1.524999999999999,1.524999999999999,1.1589999999999994,20,5,6,3,41,6,7,3,6,0,14,3.5,7,L,0.20234146341463413,0.25416666666666665,0.21785714285714286,0.3863333333333333
7,18,35,1,2,4.513999999999997,13,24,49,58,36,83,6.343999999999996,2.0739999999999985,0.427,1.585999999999999,19,5,2,7,31,7,2,8,4,0,16,4,7,L,0.20464516129032256,0.29628571428571426,0.2135,0.19824999999999998
7,18,36,1,11,3.1109999999999975,15,24,68,41,65,64,7.8689999999999944,0.7929999999999997,1.7689999999999988,1.463999999999999,20,2,7,5,44,3,10,5,4,0.5,29,4.25,7,L,0.17884090909090908,0.2643333333333333,0.1769,0.29279999999999995
7,19,37,1,2,4.818999999999996,13,29,55,51,73,47,5.916999999999996,0.9759999999999995,0.8539999999999996,1.1589999999999994,18,6,5,4,34,6,6,5,4,0,16,4,7,L,0.17402941176470588,0.16266666666666665,0.14233333333333334,0.2318
7,19,38,1,11,5.367999999999996,12,30,66,86,93,70,13.541999999999991,2.3789999999999982,2.1349999999999985,1.585999999999999,20,10,8,6,61,13,11,7,4,0,14,3.5,7,L,0.222,0.183,0.1940909090909091,0.2265714285714285
7,20,39,1,13,5.489999999999996,17,31,91,117,42,115,5.855999999999995,3.2329999999999974,1.1589999999999994,1.646999999999999,18,12,2,7,33,17,2,9,2,0,12,3,7,L,0.17745454545454545,0.19017647058823528,0.5794999999999999,0.183
7,20,40,1,3,3.720999999999997,15,25,80,77,73,98,6.953999999999994,6.038999999999995,0.9149999999999996,0.8539999999999996,20,13,3,3,40,20,4,3,5,0.5,20,2.75,7,L,0.17385,0.30194999999999994,0.22874999999999998,0.2846666666666667
8,1,1,0,9,5.123999999999996,17,27,29,62,70,92,11.101999999999991,1.4029999999999991,0.183,0.244,20,5,2,2,51,6,2,3,4,0,16,4,7,L,0.2176862745098039,0.23383333333333334,0.0915,0.08133333333333333
8,1,2,0,2,3.3549999999999973,10,13,76,52,59,77,11.71199999999999,2.3789999999999982,0.488,0.122,20,11,5,1,43,13,5,1,4,0,14,3.5,7,L,0.27237209302325577,0.183,0.09759999999999999,0.122
8,2,3,0,3,8.173999999999994,17,37,34,30,102,49,9.637999999999993,0.427,1.2199999999999993,0.427,20,3,2,1,46,3,2,1,5,0,16,4,7,L,0.20952173913043476,0.14233333333333334,0.6099999999999999,0.427
8,2,4,0,5,4.574999999999997,15,25,84,45,68,75,5.794999999999996,2.622999999999998,2.3789999999999982,0.122,19,8,8,1,31,8,11,1,5,0,15,3.75,7,L,0.18693548387096773,0.3278749999999999,0.21627272727272726,0.122
8,3,5,0,5,6.404999999999995,15,36,101,45,37,55,7.380999999999995,0.5489999999999999,1.7689999999999988,0.183,17,4,6,1,38,4,6,1,5,0,16,4,7,L,0.19423684210526315,0.13724999999999998,0.2948333333333333,0.183
8,3,6,0,9,6.282999999999995,17,39,70,66,114,112,6.587999999999995,0.9759999999999995,6.465999999999995,0.427,19,6,13,5,41,7,25,5,4,0,12,3,7,L,0.1606829268292683,0.13942857142857143,0.25864,0.0854
8,4,7,0,8,9.027999999999993,15,47,94,65,110,48,9.942999999999993,0.6099999999999999,0.122,0.061,18,2,2,1,51,2,2,1,2,0,14,3.5,7,L,0.1949607843137255,0.305,0.061,0.061
8,4,8,0,6,5.428999999999996,18,25,1,51,98,10,10.308999999999992,0.122,0.061,0.7929999999999997,20,1,1,5,48,1,1,5,6,0,18,4.5,7,L,0.21477083333333333,0.122,0.061,0.1586
8,5,9,0,3,5.306999999999996,16,33,36,28,27,60,6.587999999999996,0.244,2.500999999999998,2.683999999999998,20,3,10,6,40,3,13,9,5,0.5,34,4.75,7,L,0.16469999999999999,0.08133333333333333,0.19238461538461538,0.29822222222222217
8,5,10,0,7,7.197999999999994,15,43,22,37,43,99,7.380999999999994,2.2569999999999983,2.8669999999999978,4.269999999999997,16,10,9,10,44,15,12,15,6,0,18,4.5,7,L,0.16775,0.15046666666666667,0.23891666666666667,0.2846666666666666
8,6,11,0,5,5.489999999999996,16,33,88,45,40,108,6.892999999999995,1.585999999999999,0.244,0.5489999999999999,20,4,2,1,41,4,2,1,5,0,15,3.75,7,L,0.16812195121951218,0.3964999999999999,0.122,0.5489999999999999
8,6,12,0,7,4.574999999999997,16,29,65,16,79,14,7.685999999999995,0.183,5.367999999999996,2.439999999999998,20,3,9,9,40,3,16,10,6,0,19,4.75,7,L,0.19215,0.061,0.3354999999999999,0.24399999999999997
8,7,13,1,7,3.2329999999999974,10,13,48,43,5,94,7.624999999999995,0.6099999999999999,0.305,0.6099999999999999,20,3,2,2,31,3,2,3,6,0,19,4.75,7,L,0.24596774193548385,0.20333333333333334,0.1525,0.20333333333333334
8,7,14,1,3,5.428999999999996,13,30,34,36,32,29,8.356999999999994,0.244,0.183,1.585999999999999,20,4,1,6,40,4,1,7,5,1,60,5,7,L,0.20892499999999997,0.061,0.183,0.22657142857142856
8,8,15,1,2,5.611999999999996,12,28,52,54,80,76,6.465999999999996,2.744999999999998,1.524999999999999,4.513999999999997,17,8,5,13,34,10,5,22,4,0,14,3.5,7,L,0.19017647058823528,0.27449999999999997,0.305,0.2051818181818182
8,8,16,1,15,5.428999999999996,15,28,20,17,13,19,5.7339999999999955,0.5489999999999999,2.2569999999999983,0.6709999999999998,17,2,10,6,30,2,13,7,6,1,72,6,7,L,0.19113333333333332,0.27449999999999997,0.17361538461538462,0.09585714285714285
8,9,17,1,7,4.879999999999996,17,30,5,12,49,110,9.393999999999993,1.7689999999999988,0.244,3.9649999999999967,20,8,1,11,50,9,1,17,6,0,18,4.5,7,L,0.18788,0.1965555555555555,0.244,0.233235294117647
8,9,18,1,15,5.306999999999996,12,31,17,20,14,67,5.611999999999996,1.8299999999999987,3.3549999999999973,3.903999999999997,15,8,9,12,34,10,15,16,6,0.5,40,5.5,7,L,0.16505882352941176,0.183,0.22366666666666662,0.244
8,10,19,1,1,4.208999999999997,12,19,82,80,13,44,6.282999999999996,0.6099999999999999,2.805999999999998,0.366,18,3,7,2,25,3,10,2,3,0,17,4.25,7,L,0.25132,0.20333333333333334,0.28059999999999996,0.183
8,10,20,1,7,4.940999999999996,13,27,11,5,60,8,6.648999999999996,0.6099999999999999,18.543999999999986,0.061,18,4,18,1,32,4,64,1,6,0.5,40,5.5,7,L,0.20778125,0.1525,0.28974999999999995,0.061
8,11,21,1,3,4.635999999999997,14,26,33,27,5,76,5.6119999999999965,2.439999999999998,2.9279999999999977,0.488,18,5,10,2,31,7,13,2,5,0,19,4.75,7,L,0.18103225806451612,0.3485714285714285,0.22523076923076923,0.244
8,11,22,1,2,5.001999999999996,13,30,58,113,38,42,7.990999999999994,0.6709999999999998,1.2809999999999993,0.183,19,2,4,2,37,2,4,2,4,0,16,4,7,L,0.21597297297297294,0.3355,0.32025,0.0915
8,12,23,1,12,6.343999999999995,15,27,39,90,48,23,8.844999999999994,1.9519999999999986,0.244,1.463999999999999,20,6,1,5,36,8,1,5,5,0,19,4.75,7,L,0.2456944444444444,0.244,0.244,0.2928
8,12,24,1,11,7.563999999999994,15,36,3,62,116,11,10.247999999999992,0.366,0.305,3.659999999999997,20,2,3,10,45,2,3,17,4,0,18,4.5,7,L,0.22773333333333332,0.183,0.10166666666666667,0.2152941176470588
8,13,25,1,7,5.672999999999996,16,32,1,10,88,34,7.441999999999995,2.744999999999998,0.6709999999999998,2.3179999999999983,20,9,3,10,45,9,3,12,6,0,20,5,7,L,0.16537777777777776,0.30499999999999994,0.22366666666666665,0.19316666666666663
8,13,26,1,12,6.770999999999995,17,33,37,72,41,24,9.332999999999993,1.7689999999999988,0.5489999999999999,0.122,20,6,4,1,44,6,4,1,5,0,20,5,7,L,0.21211363636363634,0.2948333333333333,0.13724999999999998,0.122
8,14,27,1,7,3.4159999999999973,15,21,8,10,45,37,4.208999999999997,1.8909999999999987,0.7929999999999997,2.3789999999999982,19,5,3,8,25,6,3,8,6,0,22,5.5,7,L,0.16836,0.3151666666666666,0.2643333333333333,0.297375
8,14,28,1,3,4.025999999999997,15,29,33,23,26,17,5.428999999999997,1.4029999999999991,0.122,1.7689999999999988,20,4,1,9,38,5,1,10,5,0,22,5.5,7,L,0.1428684210526316,0.28059999999999996,0.122,0.1769
8,15,29,1,15,3.2939999999999974,12,22,21,20,16,50,4.6969999999999965,6.526999999999995,6.343999999999995,0.122,17,15,14,1,27,26,27,1,6,0.5,40,5.5,7,L,0.17396296296296296,0.2510384615384615,0.23496296296296293,0.122
8,15,30,1,14,6.8319999999999945,15,30,93,37,90,119,8.295999999999994,0.427,1.2809999999999993,2.0129999999999986,20,1,3,7,39,1,5,11,3,0,13,3.25,7,L,0.2127179487179487,0.427,0.2562,0.183
8,16,31,1,11,8.783999999999994,15,35,68,70,33,65,8.844999999999994,0.427,1.3419999999999992,4.208999999999997,16,2,5,13,36,2,7,19,4,0.5,29,4.25,7,L,0.2456944444444444,0.2135,0.1917142857142857,0.22152631578947368
8,16,32,1,2,6.709999999999995,16,41,74,53,60,115,11.406999999999991,3.781999999999997,0.7319999999999998,4.818999999999996,20,9,3,9,61,13,3,16,4,0,13,3.25,7,L,0.187,0.2909230769230769,0.244,0.3011875
8,17,33,1,15,2.8669999999999978,11,19,13,15,58,22,3.7209999999999974,1.524999999999999,1.463999999999999,0.305,14,8,4,4,23,9,4,4,6,0.5,40,5.5,7,L,0.16178260869565217,0.16944444444444445,0.366,0.07625
8,17,34,1,12,3.1109999999999975,13,18,120,110,116,91,3.9039999999999973,1.1589999999999994,1.646999999999999,2.8669999999999978,14,5,7,11,19,6,9,14,5,0.5,15,2.25,7,L,0.20547368421052628,0.19316666666666665,0.183,0.2047857142857143
8,18,35,1,11,2.9889999999999977,13,17,48,64,68,61,8.905999999999993,0.305,0.6099999999999999,0.122,20,3,4,2,44,3,5,2,4,0.5,29,4.25,7,L,0.2024090909090909,0.10166666666666667,0.122,0.061
8,18,36,1,13,4.025999999999997,14,23,120,87,119,117,5.306999999999997,3.2939999999999974,0.6099999999999999,4.025999999999997,18,12,2,11,30,18,2,17,2,0.5,15,2.25,7,L,0.1769,0.18299999999999997,0.305,0.23682352941176468
8,19,37,1,8,4.452999999999997,16,29,2,97,102,104,37.33199999999997,1.9519999999999986,0.061,1.8299999999999987,20,10,1,7,164,11,1,10,2,0.5,18,3,7,L,0.2276341463414634,0.17745454545454545,0.061,0.183
8,19,38,1,15,1.8299999999999987,10,11,13,15,20,87,2.5009999999999986,1.1589999999999994,2.561999999999998,4.269999999999997,13,5,7,15,14,5,12,20,6,0.5,39,5.25,7,L,0.17864285714285713,0.2318,0.2135,0.2135
8,20,39,1,15,5.245999999999996,13,26,24,23,62,107,6.831999999999995,0.122,2.439999999999998,1.4029999999999991,20,1,6,6,35,1,8,6,6,0,18,4.5,7,L,0.19519999999999998,0.122,0.30499999999999994,0.23383333333333334
8,20,40,1,2,5.7339999999999955,17,29,54,60,81,28,6.648999999999996,5.489999999999996,1.646999999999999,0.8539999999999996,20,15,4,5,35,23,5,6,4,0,16,4,7,L,0.18997142857142857,0.23869565217391303,0.32939999999999997,0.14233333333333334
9,1,1,0,6,2.439999999999998,8,11,1,7,9,78,2.7449999999999983,3.1719999999999975,0.061,0.427,10,10,1,2,13,18,1,2,6,0.5,39,5.25,7,L,0.21115384615384614,0.1762222222222222,0.061,0.2135
9,1,2,0,7,3.3549999999999973,13,20,15,31,101,89,8.600999999999994,0.366,0.366,0.7319999999999998,20,1,5,3,44,1,5,3,6,0,16,4,7,L,0.19547727272727272,0.366,0.0732,0.244
9,2,3,0,5,3.4159999999999973,12,17,96,48,44,103,5.550999999999996,0.488,1.646999999999999,2.0739999999999985,20,3,4,9,28,3,4,10,5,0,15,3.75,7,L,0.19824999999999998,0.16266666666666665,0.4117499999999999,0.20739999999999997
9,2,4,0,3,2.500999999999998,11,20,84,57,113,32,10.308999999999992,5.306999999999996,0.061,0.427,20,11,1,3,58,22,1,3,5,0,14,3.5,7,L,0.1777413793103448,0.2412272727272727,0.061,0.14233333333333334
9,3,5,0,6,3.4159999999999973,14,23,66,8,48,10,6.587999999999995,4.7579999999999965,0.366,1.463999999999999,19,14,1,6,30,23,2,7,6,0,21,5.25,7,L,0.21959999999999996,0.2068695652173913,0.183,0.20914285714285713
9,3,6,0,2,7.563999999999994,15,33,49,99,30,106,10.247999999999992,2.683999999999998,0.9149999999999996,0.061,20,11,5,1,44,14,5,1,4,0,13,3.25,7,L,0.2329090909090909,0.1917142857142857,0.183,0.061
9,4,7,0,9,6.770999999999995,18,37,64,62,69,34,7.563999999999995,0.366,3.720999999999997,0.8539999999999996,20,3,10,2,42,3,16,2,4,0.5,29,4.25,7,L,0.18009523809523809,0.122,0.23256249999999998,0.42699999999999994
9,4,8,0,8,5.428999999999996,18,24,114,19,118,17,6.038999999999996,1.1589999999999994,0.7929999999999997,4.330999999999997,20,5,4,10,28,6,4,17,2,0,16,4,7,L,0.21567857142857141,0.19316666666666665,0.19824999999999998,0.2547647058823529
9,5,9,0,3,5.306999999999996,17,32,31,36,15,120,5.977999999999996,0.366,0.5489999999999999,2.0739999999999985,20,3,3,6,36,3,3,8,5,0,18,4.5,7,L,0.16605555555555554,0.122,0.183,0.25925
9,5,10,0,4,5.245999999999996,19,35,104,102,80,9,7.197999999999995,3.0499999999999976,1.8299999999999987,0.9759999999999995,20,10,10,3,47,14,11,3,2,0,13,3.25,7,L,0.15314893617021277,0.21785714285714283,0.16636363636363635,0.3253333333333333
9,6,11,0,5,4.391999999999997,12,18,20,45,46,24,5.550999999999997,0.8539999999999996,0.061,3.781999999999997,14,2,1,11,21,2,1,14,5,0,22,5.5,7,L,0.26433333333333325,0.427,0.061,0.27014285714285713
9,6,12,0,6,6.8319999999999945,17,42,5,36,31,63,11.589999999999991,0.366,0.122,1.7689999999999988,20,2,1,8,66,2,1,10,6,0,20,5,7,L,0.1756060606060606,0.183,0.122,0.1769
9,7,13,1,1,3.720999999999997,11,17,3,58,8,28,6.648999999999995,1.8909999999999987,3.842999999999997,4.879999999999996,20,7,12,15,29,8,18,23,3,0,21,5.25,7,L,0.2292758620689655,0.23637499999999995,0.2135,0.21217391304347824
9,7,14,1,15,5.489999999999996,16,27,13,46,63,110,7.8079999999999945,1.4029999999999991,2.439999999999998,0.6099999999999999,20,9,9,3,32,10,12,3,6,0,17,4.25,7,L,0.24399999999999997,0.1403,0.2033333333333333,0.20333333333333334
9,8,15,1,13,6.099999999999995,16,31,117,68,119,26,11.528999999999991,3.1109999999999975,0.122,0.488,20,9,1,4,57,15,1,4,2,0,13,3.25,7,L,0.20226315789473684,0.2074,0.122,0.122
9,8,16,1,12,4.818999999999996,15,29,82,108,83,106,10.369999999999992,0.122,1.463999999999999,4.940999999999996,20,2,4,13,51,2,4,23,5,0,10,2.5,7,L,0.20333333333333334,0.061,0.3659999999999999,0.2148260869565217
9,9,17,1,8,6.282999999999995,13,28,20,108,27,59,7.441999999999995,2.3179999999999983,1.3419999999999992,0.5489999999999999,17,11,5,3,32,13,5,3,2,0,17,4.25,7,L,0.23256249999999998,0.1783076923076923,0.26839999999999997,0.183
9,9,18,1,7,4.391999999999997,12,18,10,91,114,120,7.441999999999995,3.2939999999999974,3.720999999999997,2.9889999999999977,20,9,11,8,34,17,16,12,6,0,13,3.25,7,L,0.21888235294117644,0.19376470588235292,0.23256249999999998,0.2490833333333333
9,10,19,1,1,4.208999999999997,12,22,78,81,52,56,5.184999999999997,0.9759999999999995,2.1349999999999985,0.9759999999999995,19,4,8,4,30,4,10,4,3,0,14,3.5,7,L,0.17283333333333334,0.24399999999999994,0.2135,0.244
9,10,20,1,3,2.683999999999998,11,17,30,26,25,18,3.293999999999998,0.9759999999999995,0.183,3.903999999999997,12,4,1,10,18,5,1,16,5,0.5,36,5.25,7,L,0.183,0.19519999999999998,0.183,0.244
9,11,21,1,3,3.1719999999999975,11,20,63,28,74,84,8.112999999999994,0.244,0.5489999999999999,0.6709999999999998,20,2,2,4,40,2,3,4,5,0,15,3.75,7,L,0.20282499999999998,0.122,0.183,0.16775
9,11,22,1,14,4.574999999999997,15,33,7,89,111,118,6.953999999999995,2.805999999999998,2.9889999999999977,3.2939999999999974,20,10,6,10,47,13,7,17,3,0,13,3.25,7,L,0.14795744680851064,0.21584615384615383,0.42699999999999994,0.19376470588235292
9,12,23,1,3,6.953999999999994,15,32,27,26,112,85,7.258999999999994,0.122,2.805999999999998,1.524999999999999,18,2,11,6,35,2,16,7,5,0,15,3.75,7,L,0.20739999999999997,0.061,0.175375,0.21785714285714286
9,12,24,1,12,3.781999999999997,15,24,50,55,49,48,4.940999999999996,0.8539999999999996,1.8299999999999987,0.8539999999999996,19,3,5,6,28,3,6,6,5,0.5,29,4.25,7,L,0.1764642857142857,0.2846666666666667,0.305,0.14233333333333334
9,13,25,1,1,6.8319999999999945,15,30,109,114,63,36,9.698999999999993,0.488,1.2199999999999993,1.0369999999999995,20,3,3,6,42,3,4,8,3,0,13,3.25,7,L,0.2309285714285714,0.16266666666666665,0.305,0.129625
9,13,26,1,7,8.844999999999994,18,46,10,12,2,37,9.393999999999993,0.6099999999999999,3.537999999999997,4.818999999999996,20,3,10,12,48,3,14,17,6,0.5,41,5.75,7,L,0.19570833333333332,0.20333333333333334,0.2527142857142857,0.28347058823529403
9,14,27,1,1,5.367999999999996,14,24,119,73,83,113,8.722999999999994,1.3419999999999992,0.6709999999999998,0.6099999999999999,20,8,1,4,34,8,1,4,3,0,10,2.5,7,L,0.25655882352941173,0.16774999999999998,0.6709999999999998,0.1525
9,14,28,1,3,4.574999999999997,16,24,32,86,99,91,4.818999999999996,5.001999999999996,1.463999999999999,0.427,20,12,5,3,28,21,6,3,5,0,13,3.25,7,L,0.17210714285714285,0.23819047619047615,0.24399999999999997,0.14233333333333334
9,15,29,1,2,4.269999999999997,17,31,51,30,95,8,5.306999999999997,1.1589999999999994,1.1589999999999994,0.7929999999999997,19,3,5,3,33,3,8,4,4,0,18,4.5,7,L,0.1608181818181818,0.3863333333333333,0.144875,0.19824999999999998
9,15,30,1,1,5.611999999999996,16,25,78,82,39,119,8.844999999999994,1.7079999999999989,1.4029999999999991,1.524999999999999,20,7,7,5,42,8,7,7,3,0,13,3.25,7,L,0.21059523809523809,0.2135,0.20042857142857143,0.21785714285714283
9,16,31,1,15,3.0499999999999976,8,10,80,26,34,107,4.330999999999997,5.001999999999996,0.488,0.6709999999999998,12,17,4,1,14,24,4,1,6,0,15,3.75,7,L,0.3093571428571428,0.20841666666666667,0.122,0.6709999999999998
9,16,32,1,2,3.1109999999999975,11,19,60,46,110,53,7.136999999999995,2.3179999999999983,0.366,1.0979999999999994,20,10,1,7,36,12,1,7,4,0,15,3.75,7,L,0.19824999999999998,0.19316666666666665,0.366,0.15685714285714286
9,17,33,1,12,5.428999999999996,17,29,44,119,45,73,8.600999999999994,1.2809999999999993,1.463999999999999,1.646999999999999,20,7,4,5,49,7,4,6,5,0,15,3.75,7,L,0.17553061224489797,0.183,0.366,0.27449999999999997
9,17,34,1,2,6.404999999999995,14,27,60,54,31,25,9.698999999999993,0.9759999999999995,1.0369999999999995,3.903999999999997,20,6,5,10,50,7,5,13,4,0,18,4.5,7,L,0.19397999999999999,0.13942857142857143,0.2074,0.3003076923076922
9,18,35,1,1,5.062999999999996,15,21,112,70,64,77,7.990999999999994,1.0369999999999995,0.9759999999999995,0.7319999999999998,20,5,4,5,37,5,5,6,3,0,13,3.25,7,L,0.21597297297297294,0.2074,0.19519999999999998,0.122
9,18,36,1,3,2.805999999999998,12,18,92,55,98,51,9.149999999999993,3.2939999999999974,0.122,0.427,20,13,1,2,46,19,1,3,5,0,13,3.25,7,L,0.19891304347826086,0.17336842105263156,0.122,0.14233333333333334
9,19,37,1,7,11.284999999999991,15,47,40,6,45,41,13.23699999999999,1.4029999999999991,2.1959999999999984,2.2569999999999983,20,6,3,7,55,7,5,9,6,0.5,36,5.25,7,L,0.24067272727272723,0.20042857142857143,0.4391999999999999,0.25077777777777777
9,19,38,1,3,4.574999999999997,11,24,30,36,35,28,5.367999999999997,0.8539999999999996,0.122,1.463999999999999,15,3,1,8,28,3,1,15,5,1,60,5,7,L,0.1917142857142857,0.2846666666666667,0.122,0.09759999999999999
9,20,39,1,11,4.879999999999996,15,28,72,2,118,69,7.258999999999995,0.9759999999999995,2.439999999999998,0.305,20,2,10,1,39,2,10,1,4,0,16,4,7,L,0.1861282051282051,0.48799999999999993,0.244,0.305
9,20,40,1,15,6.465999999999995,15,36,21,15,105,13,10.491999999999992,0.061,6.770999999999995,0.061,20,1,15,1,56,1,27,1,6,0.5,38,5,7,L,0.18735714285714283,0.061,0.25077777777777777,0.061
10,1,1,0,3,6.465999999999995,17,36,85,31,1,54,7.8079999999999945,1.8299999999999987,1.463999999999999,8.722999999999994,20,7,3,16,41,8,4,34,5,0,18,4.5,7,L,0.19043902439024388,0.22874999999999998,0.3659999999999999,0.25655882352941173
10,1,2,0,5,3.4159999999999973,9,12,13,42,45,38,4.025999999999997,0.305,0.305,2.8669999999999978,10,2,3,9,14,2,3,15,5,0.5,36,5.25,7,L,0.28757142857142853,0.1525,0.10166666666666667,0.19113333333333332
10,2,3,0,5,3.476999999999997,13,22,38,56,60,114,6.526999999999995,3.781999999999997,0.6099999999999999,0.8539999999999996,20,11,4,4,39,15,4,4,5,0,15,3.75,7,L,0.16735897435897434,0.2521333333333333,0.1525,0.2135
10,2,4,0,9,5.123999999999996,15,28,67,71,101,102,6.465999999999996,0.061,0.8539999999999996,1.7079999999999989,20,1,2,9,35,1,2,11,4,0,12,3,7,L,0.18474285714285713,0.061,0.42699999999999994,0.15527272727272726
10,3,5,0,8,3.903999999999997,15,25,120,14,37,115,8.661999999999994,4.879999999999996,0.8539999999999996,0.366,20,12,4,1,44,18,5,1,2,0,15,3.75,7,L,0.19686363636363635,0.2711111111111111,0.17079999999999998,0.366
10,3,6,0,6,10.125999999999992,18,41,85,8,2,98,13.48099999999999,0.427,3.781999999999997,0.244,20,2,9,1,56,2,15,1,6,0,17,4.25,7,L,0.2407321428571428,0.2135,0.2521333333333333,0.244
10,4,7,0,3,6.587999999999995,19,45,12,30,80,25,7.929999999999994,0.183,1.524999999999999,1.4029999999999991,20,2,5,3,51,2,8,5,5,0,19,4.75,7,L,0.15549019607843137,0.0915,0.190625,0.28059999999999996
10,4,8,0,5,4.879999999999996,14,30,39,90,111,93,6.648999999999996,1.2809999999999993,0.6709999999999998,1.0369999999999995,20,9,3,5,41,9,3,6,5,0,13,3.25,7,L,0.16217073170731705,0.14233333333333334,0.22366666666666665,0.17283333333333334
10,5,9,0,4,5.367999999999996,17,33,103,1,75,8,7.8689999999999944,1.8909999999999987,0.6709999999999998,2.744999999999998,20,6,5,10,45,8,5,15,2,0,17,4.25,7,L,0.17486666666666667,0.23637499999999997,0.13419999999999999,0.183
10,5,10,0,5,6.587999999999995,14,35,44,38,18,55,7.136999999999995,0.305,0.488,5.184999999999996,18,3,2,14,40,3,2,19,5,0,20,5,7,L,0.17842499999999997,0.10166666666666667,0.244,0.2728947368421052
10,6,11,0,5,5.611999999999996,18,34,45,42,98,100,6.160999999999996,0.5489999999999999,5.7339999999999955,0.5489999999999999,20,2,13,5,37,2,23,5,5,0,14,3.5,7,L,0.1665135135135135,0.27449999999999997,0.24930434782608693,0.1098
10,6,12,0,3,4.208999999999997,14,25,13,109,30,23,10.369999999999992,0.305,0.183,0.6099999999999999,20,3,1,4,45,3,1,4,5,0,19,4.75,7,L,0.23044444444444442,0.10166666666666667,0.183,0.1525
10,7,13,1,8,5.062999999999996,12,22,29,100,26,97,6.282999999999996,1.2809999999999993,0.183,0.9759999999999995,15,7,1,6,26,8,1,7,2,0,14,3.5,7,L,0.24165384615384614,0.160125,0.183,0.13942857142857143
10,7,14,1,1,4.330999999999997,13,26,83,70,110,78,8.722999999999994,0.6709999999999998,0.8539999999999996,0.305,20,4,4,1,45,4,5,1,3,0,12,3,7,L,0.19384444444444443,0.16775,0.1708,0.305
10,8,15,1,1,5.550999999999996,17,27,103,77,76,101,6.587999999999996,1.463999999999999,1.2809999999999993,0.427,20,9,6,1,30,9,6,2,3,0,10,2.5,7,L,0.2196,0.16266666666666665,0.2135,0.2135
10,8,16,1,12,5.001999999999996,13,25,41,96,118,120,8.112999999999994,0.7929999999999997,0.366,1.8909999999999987,20,4,2,7,39,5,2,8,5,0,12,3,7,L,0.20802564102564103,0.1586,0.183,0.23637499999999997
10,9,17,1,8,8.417999999999994,16,33,21,89,13,16,13.78599999999999,0.9759999999999995,0.427,0.366,20,5,2,3,53,5,2,3,2,0.5,39,5.25,7,L,0.26011320754716977,0.19519999999999998,0.2135,0.122
10,9,18,1,12,5.306999999999996,14,26,48,40,81,47,8.356999999999994,2.8669999999999978,0.427,8.905999999999993,20,8,1,14,43,12,1,37,5,0.5,33,4.5,7,L,0.19434883720930232,0.2389166666666666,0.427,0.2407027027027027
10,10,19,1,2,4.269999999999997,11,19,54,108,57,30,13.358999999999991,2.744999999999998,2.439999999999998,0.305,20,10,11,1,63,12,14,1,4,0,15,3.75,7,L,0.21204761904761904,0.22874999999999998,0.1742857142857143,0.305
10,10,20,1,11,3.476999999999997,14,22,69,44,62,119,4.452999999999997,3.2329999999999974,2.0129999999999986,0.5489999999999999,17,8,11,1,25,17,11,2,4,0,15,3.75,7,L,0.17811999999999997,0.1901764705882353,0.18299999999999997,0.27449999999999997
10,11,21,1,12,5.001999999999996,12,22,46,44,45,87,6.526999999999996,0.7929999999999997,0.5489999999999999,3.476999999999997,20,5,4,10,30,5,4,12,5,0.5,33,4.5,7,L,0.21756666666666666,0.1586,0.13724999999999998,0.28974999999999995
10,11,22,1,8,5.855999999999995,14,30,51,27,12,107,9.088999999999993,5.977999999999995,0.9759999999999995,10.308999999999992,20,14,6,15,45,28,7,44,2,0,17,4.25,7,L,0.20197777777777778,0.21349999999999997,0.13942857142857143,0.23429545454545453
10,12,23,1,15,9.515999999999993,14,43,14,19,37,46,13.541999999999991,1.4029999999999991,0.183,0.427,20,6,1,1,57,8,1,1,6,0,22,5.5,7,L,0.23757894736842103,0.175375,0.183,0.427
10,12,24,1,7,3.2329999999999974,15,21,11,32,1,70,9.515999999999993,0.366,0.366,0.183,20,2,2,1,50,2,2,1,6,0,21,5.25,7,L,0.19032,0.183,0.183,0.183
10,13,25,1,8,4.574999999999997,15,23,100,13,17,41,4.940999999999996,4.879999999999996,0.122,1.2809999999999993,17,10,1,5,25,15,1,5,2,0,19,4.75,7,L,0.19763999999999998,0.3253333333333333,0.122,0.2562
10,13,26,1,7,4.086999999999997,11,21,72,2,11,35,5.489999999999997,2.439999999999998,2.1349999999999985,1.2199999999999993,14,10,5,5,25,15,7,6,6,0,21,5.25,7,L,0.2196,0.16266666666666665,0.30499999999999994,0.20333333333333334
10,14,27,1,3,6.587999999999995,16,40,34,8,94,63,6.770999999999995,1.0979999999999994,4.452999999999997,2.3179999999999983,17,5,13,8,41,5,22,9,5,0,18,4.5,7,L,0.16514634146341461,0.2196,0.2024090909090909,0.2575555555555555
10,14,28,1,1,6.465999999999995,15,34,74,40,83,39,7.197999999999995,0.7319999999999998,0.427,0.7319999999999998,19,2,2,3,39,3,2,3,3,0,16,4,7,L,0.18456410256410255,0.244,0.2135,0.24399999999999997
10,15,29,1,14,7.075999999999994,18,41,94,91,67,41,8.173999999999994,0.7929999999999997,0.9149999999999996,0.244,20,5,4,1,49,7,5,1,3,0,15,3.75,7,L,0.16681632653061224,0.11328571428571428,0.183,0.244
10,15,30,1,2,3.598999999999997,12,20,49,58,79,32,4.513999999999997,0.7929999999999997,7.319999999999994,2.500999999999998,15,7,18,8,23,8,42,12,4,0,16,4,7,L,0.19626086956521738,0.09912499999999999,0.17428571428571427,0.20841666666666664
10,16,31,1,12,7.807999999999994,18,42,44,11,12,10,9.393999999999993,2.1349999999999985,4.391999999999997,3.781999999999997,20,8,14,10,47,9,22,16,5,0.5,41,5.75,7,L,0.1998723404255319,0.2372222222222222,0.1996363636363636,0.23637499999999997
10,16,32,1,3,3.598999999999997,12,21,34,35,36,81,6.8929999999999945,2.2569999999999983,0.244,3.2939999999999974,20,8,2,8,32,12,2,12,5,0.5,33,4.5,7,L,0.21540624999999997,0.18808333333333332,0.122,0.27449999999999997
10,17,33,1,15,7.258999999999994,16,41,19,18,54,36,9.942999999999993,2.9889999999999977,3.781999999999997,0.366,20,10,11,2,54,18,15,2,6,0,21,5.25,7,L,0.18412962962962962,0.16605555555555554,0.2521333333333333,0.183
10,17,34,1,1,6.465999999999995,14,28,77,37,78,72,8.905999999999993,0.427,0.244,0.6709999999999998,20,2,2,5,37,2,2,5,3,0,15,3.75,7,L,0.2407027027027027,0.2135,0.122,0.13419999999999999
10,18,35,1,13,5.184999999999996,17,34,14,15,66,69,5.916999999999996,3.4159999999999973,0.7319999999999998,0.122,20,7,3,2,37,13,4,2,2,0,20,5,7,L,0.1599189189189189,0.26276923076923075,0.183,0.061
10,18,36,1,2,2.500999999999998,10,13,26,78,81,58,8.783999999999994,1.2809999999999993,0.061,0.6099999999999999,20,3,1,1,38,5,1,1,4,0,15,3.75,7,L,0.23115789473684206,0.2562,0.061,0.6099999999999999
10,19,37,1,12,6.587999999999995,15,34,38,46,15,98,7.380999999999995,2.8669999999999978,0.7929999999999997,0.244,20,7,2,2,39,11,2,2,5,0,18,4.5,7,L,0.18925641025641024,0.26063636363636355,0.39649999999999996,0.122
10,19,38,1,13,4.452999999999997,14,27,116,85,110,72,4.818999999999996,0.6099999999999999,0.5489999999999999,1.7689999999999988,16,2,4,6,29,2,4,6,2,0,11,2.75,7,L,0.16617241379310344,0.305,0.13724999999999998,0.2948333333333333
10,20,39,1,2,5.123999999999996,13,24,52,55,16,56,5.550999999999996,0.6099999999999999,0.6099999999999999,2.1959999999999984,15,4,1,10,26,5,1,13,4,0.5,30,4.5,7,L,0.21349999999999997,0.122,0.6099999999999999,0.1689230769230769
10,20,40,1,3,6.770999999999995,18,36,88,31,34,117,7.136999999999994,0.244,5.123999999999996,0.122,19,2,12,1,37,2,21,1,5,0,15,3.75,7,L,0.19289189189189188,0.122,0.244,0.122
11,1,1,0,3,6.160999999999995,17,30,34,14,106,27,7.197999999999995,1.524999999999999,0.305,1.4029999999999991,20,7,2,6,34,7,2,8,5,0,18,4.5,7,L,0.21170588235294116,0.21785714285714286,0.1525,0.175375
11,1,2,0,9,4.879999999999996,14,32,2,61,64,66,8.051999999999994,0.7929999999999997,0.427,1.2809999999999993,20,5,3,5,40,5,3,5,4,0.5,30,4.5,7,L,0.20129999999999998,0.1586,0.14233333333333334,0.2562
11,2,3,0,8,4.879999999999996,15,27,119,15,72,112,5.367999999999997,1.585999999999999,2.0739999999999985,0.6099999999999999,17,7,7,2,29,10,12,3,2,0,14,3.5,7,L,0.18510344827586206,0.1586,0.1728333333333333,0.20333333333333334
11,2,4,0,6,4.513999999999997,9,22,108,10,98,106,6.953999999999995,0.9759999999999995,2.2569999999999983,1.1589999999999994,14,3,10,7,28,3,12,7,6,0.5,18,3,7,L,0.24835714285714283,0.3253333333333333,0.18808333333333332,0.16557142857142856
11,3,5,0,3,7.685999999999994,13,38,29,26,68,36,8.051999999999994,1.3419999999999992,0.7929999999999997,1.3419999999999992,15,6,3,6,40,6,3,6,5,0.5,34,4.75,7,L,0.20129999999999998,0.22366666666666668,0.2643333333333333,0.22366666666666665
11,3,6,0,2,5.916999999999995,11,32,102,1,49,12,8.844999999999994,0.7929999999999997,0.366,3.3549999999999973,20,3,3,10,45,3,3,12,4,0,18,4.5,7,L,0.19655555555555554,0.2643333333333333,0.122,0.2795833333333333
11,4,7,0,4,5.367999999999996,18,34,18,98,108,100,7.441999999999995,8.173999999999994,3.659999999999997,0.305,20,17,11,2,42,39,16,2,2,0.5,18,3,7,L,0.17719047619047618,0.20958974358974355,0.22875,0.1525
11,4,8,0,1,6.8929999999999945,15,43,77,66,1,69,7.319999999999994,6.221999999999995,0.366,2.0129999999999986,17,13,1,8,45,26,1,13,3,0,17,4.25,7,L,0.16266666666666665,0.23930769230769228,0.366,0.15484615384615383
11,5,9,0,7,3.2939999999999974,12,24,14,77,29,83,5.550999999999996,8.661999999999994,0.122,0.244,19,16,2,1,34,43,2,1,6,0,17,4.25,7,L,0.16326470588235292,0.20144186046511628,0.061,0.244
11,5,10,0,8,4.513999999999997,11,26,118,69,114,6,4.940999999999996,0.488,1.7689999999999988,0.5489999999999999,14,1,4,2,29,1,4,2,2,0,14,3.5,7,L,0.1703793103448276,0.488,0.4422499999999999,0.27449999999999997
11,6,11,0,1,2.9889999999999977,10,18,79,99,98,108,8.966999999999993,3.720999999999997,1.646999999999999,0.305,20,15,5,2,42,21,6,2,3,0.5,15,2.25,7,L,0.21349999999999997,0.17719047619047618,0.27449999999999997,0.1525
11,6,12,0,5,8.844999999999994,12,46,3,1,47,89,14.39599999999999,4.940999999999996,0.122,0.122,20,14,1,1,73,17,1,1,5,0,20,5,7,L,0.19720547945205477,0.29064705882352937,0.122,0.122
11,7,13,1,12,6.404999999999995,17,35,39,44,47,48,7.258999999999995,1.524999999999999,0.7319999999999998,1.2199999999999993,19,6,3,5,37,8,4,7,5,1,60,5,7,L,0.19618918918918918,0.190625,0.183,0.1742857142857143
11,7,14,1,15,5.001999999999996,12,26,109,14,22,118,10.613999999999992,0.9149999999999996,0.6099999999999999,0.427,20,4,5,2,48,4,5,2,6,0,16,4,7,L,0.221125,0.22875,0.122,0.2135
11,8,15,1,2,7.380999999999994,13,37,98,95,56,37,8.905999999999993,1.2199999999999993,0.122,0.9759999999999995,17,4,1,4,45,5,1,4,4,0,14,3.5,7,L,0.1979111111111111,0.244,0.122,0.244
11,8,16,1,1,8.112999999999994,16,41,73,76,35,116,8.173999999999994,0.7319999999999998,2.622999999999998,0.9759999999999995,17,2,11,6,42,2,15,7,3,0,13,3.25,7,L,0.1946190476190476,0.36599999999999994,0.17486666666666667,0.13942857142857143
11,9,17,1,13,7.441999999999994,18,44,115,36,4,95,9.759999999999993,3.842999999999997,0.7319999999999998,0.122,20,9,3,1,61,15,3,1,2,0,16,4,7,L,0.16,0.2562,0.244,0.122
11,9,18,1,15,5.062999999999996,13,25,41,55,74,101,10.857999999999992,1.4029999999999991,1.0369999999999995,0.488,20,5,5,3,52,5,5,4,6,0,14,3.5,7,L,0.20880769230769228,0.28059999999999996,0.2074,0.122
11,10,19,1,3,3.598999999999997,10,27,34,87,111,26,4.086999999999997,2.1959999999999984,1.524999999999999,2.9889999999999977,12,8,5,9,29,13,6,15,5,0,15,3.75,7,L,0.14093103448275862,0.1689230769230769,0.25416666666666665,0.19926666666666668
11,10,20,1,7,3.476999999999997,8,18,10,106,7,9,6.526999999999995,2.2569999999999983,0.061,0.6709999999999998,20,9,1,1,34,12,1,1,6,0.5,38,5,7,L,0.19197058823529412,0.1880833333333333,0.061,0.6709999999999998
11,11,21,1,14,7.258999999999994,14,37,93,113,96,39,8.173999999999994,0.9759999999999995,0.7929999999999997,4.147999999999997,20,4,4,12,44,4,4,19,3,0,13,3.25,7,L,0.18577272727272728,0.244,0.19824999999999998,0.21831578947368419
11,11,22,1,8,5.306999999999996,17,29,104,28,78,108,6.221999999999996,3.1719999999999975,1.7079999999999989,0.183,20,11,6,1,32,15,8,1,2,0,12,3,7,L,0.19443749999999999,0.21146666666666664,0.2135,0.183
11,12,23,1,2,6.343999999999995,12,26,115,48,11,78,7.380999999999995,0.366,2.3789999999999982,2.2569999999999983,14,1,7,8,29,2,10,9,4,0,16,4,7,L,0.2545172413793103,0.183,0.23789999999999997,0.25077777777777777
11,12,24,1,3,4.147999999999997,12,25,32,34,98,87,5.550999999999997,2.9889999999999977,0.6099999999999999,2.0739999999999985,19,10,5,8,32,11,7,12,5,0,15,3.75,7,L,0.17346875,0.2717272727272727,0.08714285714285715,0.17283333333333334
11,13,25,1,12,4.574999999999997,16,24,1,46,2,113,6.038999999999996,1.8299999999999987,7.014999999999994,0.488,20,6,14,2,30,6,33,2,5,0,19,4.75,7,L,0.20129999999999998,0.30499999999999994,0.21257575757575756,0.244
11,13,26,1,3,6.099999999999995,15,33,52,96,29,108,8.844999999999994,0.488,1.1589999999999994,5.001999999999996,20,1,6,14,42,1,6,26,5,0,14,3.5,7,L,0.21059523809523809,0.488,0.19316666666666665,0.19238461538461538
11,14,27,1,15,3.659999999999997,9,19,22,24,23,78,5.184999999999996,0.5489999999999999,1.0369999999999995,1.2809999999999993,16,2,4,4,29,2,4,5,6,0.5,39,5.25,7,L,0.17879310344827584,0.27449999999999997,0.25925,0.2562
11,14,28,1,7,5.916999999999995,19,38,104,7,91,95,6.404999999999996,1.524999999999999,0.488,2.1349999999999985,20,7,1,8,40,9,1,10,6,0,14,3.5,7,L,0.160125,0.16944444444444445,0.488,0.2135
11,15,29,1,12,5.611999999999996,13,28,42,104,51,90,8.844999999999994,3.0499999999999976,2.1959999999999984,1.7689999999999988,20,10,6,9,43,16,9,12,5,0,14,3.5,7,L,0.20569767441860465,0.190625,0.24399999999999997,0.14741666666666664
11,15,30,1,13,7.624999999999994,16,31,117,111,77,112,8.905999999999993,0.061,0.6099999999999999,0.5489999999999999,20,1,4,3,37,1,4,3,2,0.5,15,2.25,7,L,0.24070270270270266,0.061,0.1525,0.183
11,16,31,1,11,6.160999999999995,14,34,116,67,72,73,7.075999999999995,0.488,1.9519999999999986,0.305,17,1,8,1,37,1,11,1,4,0,13,3.25,7,L,0.19124324324324324,0.488,0.17745454545454542,0.305
11,16,32,1,14,8.661999999999994,17,38,91,89,11,96,8.966999999999993,1.646999999999999,0.9149999999999996,2.1349999999999985,20,6,5,9,41,8,7,11,3,0.5,24,3.75,7,L,0.2187073170731707,0.205875,0.1307142857142857,0.1940909090909091
11,17,33,1,15,6.038999999999995,15,29,24,51,37,118,6.099999999999995,1.646999999999999,2.439999999999998,1.646999999999999,16,7,7,6,30,8,10,8,6,0,17,4.25,7,L,0.2033333333333333,0.20587499999999997,0.244,0.20587499999999997
11,17,34,1,11,7.014999999999994,16,39,9,5,62,97,9.149999999999993,1.0369999999999995,0.244,0.427,20,4,2,1,49,5,2,1,4,0,18,4.5,7,L,0.186734693877551,0.20739999999999997,0.122,0.427
11,18,35,1,8,5.7949999999999955,16,33,107,100,65,71,9.210999999999993,2.1959999999999984,1.2809999999999993,0.6099999999999999,20,4,4,2,49,4,4,2,2,0,12,3,7,L,0.18797959183673468,0.5489999999999997,0.32025,0.305
11,18,36,1,2,5.428999999999996,14,32,53,110,113,59,8.661999999999994,0.427,0.183,1.7079999999999989,20,3,1,8,47,4,1,11,4,0,12,3,7,L,0.18429787234042552,0.10675,0.183,0.15527272727272728
11,19,37,1,2,8.722999999999994,18,51,1,103,79,57,16.469999999999988,0.122,0.061,0.7929999999999997,20,2,1,4,79,2,1,5,4,0,15,3.75,7,L,0.20848101265822783,0.061,0.061,0.1586
11,19,38,1,14,3.0499999999999976,11,20,85,118,65,61,4.208999999999997,1.0979999999999994,2.500999999999998,3.720999999999997,18,6,6,8,27,8,9,12,3,0,13,3.25,7,L,0.15588888888888888,0.13724999999999998,0.2778888888888889,0.31008333333333327
11,20,39,1,3,4.635999999999997,17,34,33,34,26,25,5.6729999999999965,0.183,1.7689999999999988,0.244,20,1,6,2,40,1,6,2,5,1,60,5,7,L,0.141825,0.183,0.29483333333333334,0.122
11,20,40,1,12,1.8909999999999987,9,11,42,102,4,99,2.8059999999999983,1.8909999999999987,3.903999999999997,4.269999999999997,13,7,10,11,15,7,16,18,5,0,15,3.75,7,L,0.18706666666666666,0.27014285714285713,0.244,0.23722222222222217
12,1,1,0,4,5.184999999999996,14,24,28,106,103,99,7.8079999999999945,1.7689999999999988,0.427,1.2809999999999993,20,9,1,5,40,9,1,6,2,0.5,17,2.75,7,L,0.1952,0.1965555555555555,0.427,0.2135
12,1,2,0,8,7.441999999999994,18,33,115,16,95,117,9.759999999999993,1.463999999999999,0.427,1.4029999999999991,20,2,2,7,45,2,2,9,2,0,13,3.25,7,L,0.21688888888888888,0.7319999999999998,0.2135,0.15588888888888885
12,2,3,0,3,7.502999999999994,17,41,34,92,90,29,9.027999999999993,1.4029999999999991,0.305,0.305,20,5,1,1,49,6,1,1,5,0,16,4,7,L,0.18424489795918367,0.23383333333333334,0.305,0.305
12,2,4,0,9,6.648999999999995,17,28,18,64,21,62,8.722999999999994,0.366,0.5489999999999999,0.244,20,2,2,2,36,2,2,2,4,0,20,5,7,L,0.24230555555555552,0.183,0.27449999999999997,0.122
12,3,5,0,10,10.003999999999992,18,40,35,95,91,32,10.430999999999992,0.427,0.6099999999999999,1.0979999999999994,19,2,4,5,41,2,5,6,3,0,16,4,7,L,0.25441463414634147,0.2135,0.122,0.183
12,3,6,0,6,2.1349999999999985,9,15,9,7,6,76,2.6839999999999984,2.1959999999999984,2.744999999999998,6.221999999999995,12,12,8,14,18,13,11,33,6,0.5,39,5.25,7,L,0.1491111111111111,0.16892307692307693,0.2495454545454545,0.18854545454545452
12,4,7,0,8,4.025999999999997,16,32,111,91,89,22,5.123999999999997,1.4029999999999991,1.0979999999999994,1.2199999999999993,20,7,3,5,39,10,4,5,2,0,14,3.5,7,L,0.13138461538461538,0.1403,0.27449999999999997,0.24399999999999997
12,4,8,0,1,6.282999999999995,15,37,73,36,78,80,8.173999999999994,0.366,0.6709999999999998,2.683999999999998,20,1,5,7,46,1,6,9,3,0.5,23,3.5,7,L,0.17769565217391303,0.366,0.11183333333333333,0.2982222222222222
12,5,9,0,9,6.8929999999999945,16,42,95,69,90,29,9.759999999999993,0.305,0.5489999999999999,1.8299999999999987,20,3,2,4,54,3,2,6,4,0,15,3.75,7,L,0.18074074074074073,0.10166666666666667,0.27449999999999997,0.305
12,5,10,0,1,2.9279999999999977,14,18,51,52,13,75,11.284999999999991,0.061,0.122,0.6709999999999998,20,1,1,5,50,1,1,6,3,0,17,4.25,7,L,0.22569999999999998,0.061,0.122,0.11183333333333334
12,6,11,0,6,4.391999999999997,13,24,5,4,43,1,5.123999999999997,1.9519999999999986,3.842999999999997,1.1589999999999994,17,8,11,5,29,9,20,6,6,0.5,41,5.75,7,L,0.17668965517241378,0.21688888888888885,0.19215,0.19316666666666668
12,6,12,0,1,3.1719999999999975,10,16,14,78,19,22,7.990999999999994,0.183,0.183,0.9149999999999996,20,1,2,4,36,1,2,4,3,0.5,39,5.25,7,L,0.2219722222222222,0.183,0.0915,0.22875
12,7,13,1,12,8.234999999999994,19,47,45,46,48,18,10.552999999999992,2.0129999999999986,0.8539999999999996,1.646999999999999,20,6,5,6,57,8,5,7,5,0.5,36,5.25,7,L,0.18514035087719297,0.251625,0.1708,0.2352857142857143
12,7,14,1,3,7.197999999999994,12,29,32,7,114,26,8.539999999999994,1.0369999999999995,1.0979999999999994,0.366,18,3,7,2,35,4,9,2,5,0,18,4.5,7,L,0.24399999999999997,0.25925,0.122,0.183
12,8,15,1,2,6.587999999999995,15,39,57,60,75,35,7.197999999999995,1.463999999999999,1.4029999999999991,0.366,16,5,4,2,41,8,5,2,4,0,16,4,7,L,0.1755609756097561,0.183,0.28059999999999996,0.183
12,8,16,1,14,5.001999999999996,15,29,95,88,93,116,5.245999999999996,1.3419999999999992,0.5489999999999999,2.439999999999998,16,4,3,8,30,4,3,11,3,0.5,20,2.75,7,L,0.17486666666666667,0.3355,0.183,0.2218181818181818
12,9,17,1,15,3.0499999999999976,11,15,24,16,21,80,4.452999999999997,0.7319999999999998,0.7929999999999997,1.7689999999999988,16,6,4,6,21,7,4,8,6,0.5,39,5.25,7,L,0.21204761904761904,0.10457142857142857,0.19824999999999998,0.22112499999999996
12,9,18,1,2,6.648999999999995,14,38,57,25,114,117,9.027999999999993,0.6099999999999999,1.2199999999999993,1.3419999999999992,20,4,5,5,45,4,6,6,4,0,13,3.25,7,L,0.2006222222222222,0.1525,0.20333333333333334,0.22366666666666665
12,10,19,1,11,4.6969999999999965,15,27,70,29,113,115,4.818999999999996,7.075999999999994,3.9649999999999967,1.4029999999999991,17,16,9,6,29,33,15,6,4,0,13,3.25,7,L,0.16617241379310344,0.2144242424242424,0.2643333333333333,0.23383333333333334
12,10,20,1,7,1.463999999999999,8,8,3,37,55,41,10.064999999999992,0.5489999999999999,0.122,0.427,20,5,2,2,48,5,2,2,6,0,20,5,7,L,0.20968749999999997,0.1098,0.061,0.2135
12,11,21,1,15,4.330999999999997,15,25,24,15,22,120,4.635999999999997,0.8539999999999996,1.3419999999999992,1.7079999999999989,16,5,6,5,26,6,6,6,6,0.5,38,5,7,L,0.1783076923076923,0.1423333333333333,0.22366666666666662,0.2846666666666666
12,11,22,1,8,5.001999999999996,16,35,106,105,35,25,5.123999999999996,1.2199999999999993,0.6709999999999998,1.2199999999999993,17,3,1,7,36,3,2,8,2,0,14,3.5,7,L,0.14233333333333334,0.40666666666666645,0.33549999999999996,0.1525
12,12,23,1,15,6.648999999999995,17,45,55,18,19,22,7.319999999999995,0.8539999999999996,2.3789999999999982,0.9759999999999995,18,3,8,4,46,4,8,5,6,0.5,40,5.5,7,L,0.1591304347826087,0.2135,0.29737499999999994,0.19519999999999998
12,12,24,1,11,6.099999999999995,13,31,72,91,116,1,9.210999999999993,3.1109999999999975,1.4029999999999991,1.3419999999999992,20,12,5,6,45,18,8,7,4,0,15,3.75,7,L,0.2046888888888889,0.17283333333333334,0.175375,0.1917142857142857
12,13,25,1,13,6.587999999999995,13,33,115,120,43,73,6.953999999999994,0.6709999999999998,4.574999999999997,2.500999999999998,15,2,10,11,35,2,19,14,2,0,12,3,7,L,0.19868571428571427,0.3355,0.2407894736842105,0.17864285714285713
12,13,26,1,8,4.818999999999996,15,23,101,97,65,31,7.319999999999995,1.3419999999999992,1.3419999999999992,1.2199999999999993,20,8,4,5,33,8,4,7,2,0,13,3.25,7,L,0.2218181818181818,0.16774999999999998,0.3354999999999999,0.1742857142857143
12,14,27,1,14,5.428999999999996,12,27,61,89,42,11,6.526999999999996,1.7689999999999988,0.9149999999999996,2.439999999999998,17,8,2,5,34,8,3,9,3,0,18,4.5,7,L,0.19197058823529412,0.221125,0.305,0.2711111111111111
12,14,28,1,15,3.3549999999999973,13,21,117,29,35,27,6.587999999999995,1.9519999999999986,0.366,4.208999999999997,20,9,3,14,36,12,4,20,6,0.5,32,4.25,7,L,0.183,0.16266666666666665,0.0915,0.21045
12,15,29,1,14,5.977999999999995,13,37,93,4,91,88,7.624999999999995,0.6099999999999999,0.6709999999999998,0.6099999999999999,19,3,3,5,43,3,4,5,3,0.5,24,3.75,7,L,0.17732558139534882,0.20333333333333334,0.16775,0.122
12,15,30,1,15,1.7689999999999988,9,9,29,22,20,79,5.489999999999996,4.6969999999999965,1.9519999999999986,0.488,19,12,9,2,23,17,10,2,6,0,20,5,7,L,0.23869565217391303,0.27629411764705875,0.19519999999999998,0.244
12,16,31,1,15,3.659999999999997,15,24,17,46,13,43,3.964999999999997,3.2939999999999974,0.244,2.8669999999999978,16,10,2,9,25,18,3,13,6,0,22,5.5,7,L,0.1586,0.183,0.08133333333333333,0.22053846153846154
12,16,32,1,7,2.3789999999999982,9,13,109,114,53,73,5.428999999999996,0.5489999999999999,1.7689999999999988,1.3419999999999992,18,2,9,8,24,3,9,9,6,0,11,2.75,7,L,0.22620833333333332,0.183,0.19655555555555554,0.14911111111111108
12,17,33,1,15,5.367999999999996,13,37,20,13,22,24,5.611999999999996,3.659999999999997,1.1589999999999994,0.366,14,14,6,3,39,19,8,3,6,1,72,6,7,L,0.1438974358974359,0.1926315789473684,0.144875,0.122
12,17,34,1,7,4.391999999999997,15,29,5,4,2,37,4.513999999999997,4.147999999999997,0.7319999999999998,0.7929999999999997,17,15,4,2,31,22,4,2,6,0.5,41,5.75,7,L,0.14561290322580644,0.18854545454545454,0.183,0.39649999999999996
12,18,35,1,1,4.6969999999999965,13,27,75,66,115,82,7.8689999999999944,1.646999999999999,0.061,1.0369999999999995,20,5,1,5,44,5,1,5,3,0,12,3,7,L,0.17884090909090908,0.3293999999999999,0.061,0.20739999999999997
12,18,36,1,12,7.319999999999994,16,39,108,37,39,58,8.356999999999994,1.7689999999999988,0.427,3.659999999999997,20,6,3,12,43,9,3,15,5,0,16,4,7,L,0.19434883720930232,0.19655555555555554,0.14233333333333334,0.244
12,19,37,1,1,8.539999999999994,13,44,99,80,77,73,9.271999999999993,0.5489999999999999,0.427,0.183,16,3,3,2,47,4,3,2,3,0.5,20,2.75,7,L,0.19727659574468084,0.13724999999999998,0.14233333333333334,0.0915
12,19,38,1,7,5.123999999999996,14,28,2,110,4,59,5.428999999999996,2.1349999999999985,0.6099999999999999,0.9149999999999996,16,8,3,2,30,12,3,2,6,0,18,4.5,7,L,0.18096666666666666,0.17791666666666667,0.20333333333333334,0.45749999999999996
12,20,39,1,13,3.2329999999999974,13,22,69,120,67,47,8.051999999999994,1.646999999999999,0.061,1.2809999999999993,20,8,1,5,35,8,1,8,2,0,15,3.75,7,L,0.23005714285714285,0.20587499999999997,0.061,0.160125
12,20,40,1,3,3.476999999999997,12,20,99,59,57,53,4.635999999999997,2.1959999999999984,3.903999999999997,0.5489999999999999,13,6,9,3,21,12,13,4,5,0.5,26,3.5,7,L,0.22076190476190471,0.183,0.3003076923076923,0.13724999999999998
13,1,1,0,6,4.940999999999996,11,23,11,4,114,34,6.465999999999996,2.683999999999998,1.3419999999999992,0.244,17,6,1,1,30,9,3,1,6,0,19,4.75,7,L,0.21553333333333333,0.29822222222222217,0.4473333333333332,0.244
