Subject,Round,Phase,afterbreak,Schema,Schema_RT,Schema_OB,Schema_AS,Cho_1,Cho_2,Cho_3,Cho_4,RT_1,RT_2,RT_3,RT_4,OB_1,OB_2,OB_3,OB_4,AS_1,AS_2,AS_3,AS_4,schema_payoff,AC,performance,payoff,breakR,type,dwellmean_1,dwellmean_2,dwellmean_3,dwellmean_4
1,1,1,0,5,14.212999999999989,19,68,38,37,42,48,15.249999999999988,0.7319999999999998,1.0979999999999994,2.0739999999999985,20,2,6,8,73,3,7,11,5,1,60,5,6,L,0.20890410958904107,0.244,0.15685714285714286,0.18854545454545454
1,1,2,0,1,14.395999999999988,16,66,82,7,73,34,17.689999999999987,3.1719999999999975,1.2809999999999993,0.244,20,11,4,1,78,15,4,1,3,0,17,4.25,6,L,0.2267948717948718,0.21146666666666666,0.32024999999999987,0.244
1,2,3,0,10,19.885999999999985,20,96,86,15,96,26,22.020999999999983,5.245999999999996,0.366,6.587999999999995,20,15,4,14,108,24,4,34,3,0,17,4.25,6,L,0.20389814814814813,0.21858333333333332,0.0915,0.19376470588235292
1,2,4,0,9,37.88099999999997,18,161,70,71,61,62,39.10099999999997,2.8669999999999978,0.8539999999999996,0.6099999999999999,20,12,5,4,165,19,5,4,4,1,48,4,6,L,0.23697575757575753,0.15089473684210525,0.1708,0.1525
1,3,5,0,1,17.506999999999987,19,91,69,74,64,79,35.684999999999974,3.598999999999997,5.916999999999995,0.488,20,10,14,4,171,13,23,4,3,0,14,3.5,6,L,0.20868421052631578,0.27684615384615385,0.2572608695652174,0.122
1,3,6,0,6,17.811999999999987,16,81,2,10,88,103,17.872999999999987,5.611999999999996,1.3419999999999992,1.8299999999999987,17,12,5,10,82,20,5,11,6,0,17,4.25,6,L,0.21796341463414634,0.28059999999999996,0.26839999999999997,0.16636363636363635
1,4,7,0,6,75.39600000000127,19,331,6,3,9,27,75.45700000000127,25.25399999999998,3.3549999999999973,0.488,20,18,14,3,332,98,15,3,6,0.5,41,5.75,6,L,0.2272801204819277,0.25769387755102036,0.22366666666666665,0.16266666666666665
1,4,8,0,5,16.40899999999999,18,88,43,38,41,108,18.787999999999986,0.061,2.2569999999999983,7.8689999999999936,20,1,7,14,96,1,9,26,5,0.5,32,4.25,6,L,0.19570833333333332,0.061,0.2507777777777777,0.3026538461538461
1,5,9,0,6,37.88099999999997,14,174,2,6,103,4,37.94199999999997,0.488,7.014999999999994,7.746999999999994,15,4,16,13,175,4,33,30,6,0.5,38,5,6,L,0.21681142857142854,0.122,0.21257575757575756,0.2582333333333333
1,5,10,0,1,22.935999999999982,18,119,73,84,54,59,24.52199999999998,2.9889999999999977,32.45199999999998,1.585999999999999,20,11,18,7,126,14,133,10,3,0,14,3.5,6,L,0.1946190476190476,0.21349999999999997,0.24399999999999997,0.1586
1,6,11,1,1,18.909999999999986,20,81,79,80,63,23,24.82699999999998,2.0739999999999985,3.1109999999999975,2.439999999999998,20,7,10,12,111,10,11,15,3,0,16,4,6,L,0.22366666666666665,0.2074,0.2828181818181818,0.16266666666666665
1,6,12,1,7,20.312999999999985,19,79,3,2,40,12,20.983999999999984,14.029999999999989,0.7319999999999998,0.9759999999999995,20,17,4,2,82,64,4,2,6,0.5,41,5.75,6,L,0.25590243902439025,0.21921875,0.183,0.48799999999999977
1,7,13,1,13,25.98599999999998,18,118,119,109,113,21,26.04699999999998,0.122,2.1349999999999985,2.805999999999998,19,1,9,7,119,1,10,10,2,0.5,18,3,6,L,0.21888235294117644,0.122,0.2135,0.28059999999999996
1,7,14,1,14,28.608999999999977,18,140,89,50,45,1,28.730999999999977,5.672999999999996,7.990999999999993,7.258999999999994,20,13,13,14,142,22,38,29,3,0,18,4.5,6,L,0.20233098591549295,0.25786363636363635,0.2102894736842105,0.2503103448275862
1,8,15,1,12,45.932999999999964,13,185,37,61,22,20,49.04399999999996,6.648999999999995,4.025999999999997,1.585999999999999,20,14,14,5,196,23,22,6,5,0,21,5.25,6,L,0.2502244897959183,0.2890869565217391,0.183,0.2643333333333333
1,8,16,1,3,12.87099999999999,19,61,25,29,34,28,13.17599999999999,1.0979999999999994,0.427,4.6969999999999965,20,5,2,12,63,5,2,20,5,1,60,5,6,L,0.20914285714285713,0.21959999999999996,0.2135,0.23484999999999998
1,9,17,1,14,21.349999999999984,19,104,89,96,93,90,22.569999999999983,0.183,3.476999999999997,1.0979999999999994,20,1,10,5,109,1,14,6,3,1,36,3,6,L,0.20706422018348622,0.183,0.2483571428571428,0.183
1,9,18,1,12,15.249999999999988,18,68,43,45,54,8,16.591999999999988,0.6709999999999998,3.659999999999997,5.672999999999996,20,4,13,12,74,4,19,22,5,0,20,5,6,L,0.2242162162162162,0.16775,0.1926315789473684,0.2578636363636363
1,10,19,1,3,32.75699999999998,15,141,29,31,50,59,32.87899999999998,1.524999999999999,3.9649999999999967,1.1589999999999994,16,3,12,4,142,4,20,5,5,0,18,4.5,6,L,0.23154225352112676,0.3812499999999999,0.19824999999999998,0.23179999999999998
1,10,20,1,11,40.56499999999997,16,177,120,1,85,71,49.04399999999996,10.064999999999992,0.244,0.5489999999999999,20,18,1,3,212,49,1,4,4,0,15,3.75,6,L,0.2313396226415094,0.2054081632653061,0.244,0.13724999999999998
1,11,21,1,3,16.896999999999988,19,72,31,35,30,25,17.750999999999987,1.3419999999999992,0.061,3.781999999999997,20,6,1,11,76,6,1,15,5,1,60,5,6,L,0.23356578947368417,0.22366666666666665,0.061,0.2521333333333333
1,11,22,1,1,12.01699999999999,19,54,84,79,73,8,12.07799999999999,0.305,3.1719999999999975,20.556999999999984,20,2,12,16,55,2,15,85,3,0.5,24,3.75,6,L,0.2196,0.1525,0.21146666666666666,0.2418470588235294
1,12,23,1,11,29.767999999999976,16,146,68,9,6,35,31.109999999999975,9.881999999999993,15.310999999999988,4.818999999999996,20,16,18,14,152,43,69,23,4,0,21,5.25,6,L,0.20467105263157895,0.22981395348837208,0.22189855072463766,0.20952173913043476
1,12,24,1,15,15.493999999999987,13,69,15,16,14,23,16.713999999999988,1.463999999999999,2.0129999999999986,0.305,20,4,6,3,77,4,6,3,6,1,72,6,6,L,0.21706493506493504,0.36599999999999994,0.3354999999999999,0.10166666666666667
1,13,25,1,2,12.44399999999999,17,61,59,51,118,109,16.713999999999988,1.1589999999999994,0.122,7.136999999999994,20,4,1,14,80,5,1,23,4,0,12,3,6,L,0.20892499999999997,0.2318,0.122,0.3103043478260869
1,13,26,1,3,31.475999999999974,16,150,94,96,1,62,47.39699999999996,2.744999999999998,19.763999999999985,0.122,20,13,18,1,220,13,76,1,5,0,16,4,6,L,0.21544090909090907,0.21115384615384614,0.26005263157894737,0.122
1,14,27,1,7,25.68099999999998,17,112,6,12,42,52,25.80299999999998,6.404999999999995,4.391999999999997,3.1719999999999975,19,13,11,11,114,21,16,16,6,0,21,5.25,6,L,0.22634210526315787,0.30499999999999994,0.27449999999999997,0.19824999999999998
1,14,28,1,15,11.040999999999991,19,57,13,14,18,75,25.31499999999998,3.476999999999997,0.6709999999999998,0.183,20,11,3,2,115,17,3,2,6,0.5,39,5.25,6,L,0.22013043478260866,0.20452941176470585,0.22366666666666665,0.0915
1,15,29,1,15,18.604999999999986,19,90,18,19,23,50,18.665999999999986,7.9299999999999935,1.7079999999999989,0.183,20,17,5,1,91,34,5,1,6,0.5,40,5.5,6,L,0.20512087912087912,0.23323529411764704,0.3415999999999999,0.183
1,15,30,1,3,54.777999999999956,18,218,12,35,10,32,57.461999999999954,0.183,3.720999999999997,1.2199999999999993,20,2,11,6,229,2,17,6,5,0,22,5.5,6,L,0.2509257641921397,0.0915,0.21888235294117647,0.20333333333333334
1,16,31,1,11,24.03399999999998,20,122,71,3,7,9,25.49799999999998,10.491999999999992,4.879999999999996,0.305,20,18,13,3,127,53,17,3,4,0.5,40,5.5,6,L,0.20077165354330706,0.1979622641509434,0.2870588235294117,0.10166666666666667
1,16,32,1,15,20.190999999999985,17,109,15,14,73,44,22.630999999999982,3.1109999999999975,5.123999999999996,2.561999999999998,20,12,13,9,116,22,26,12,6,0,20,5,6,L,0.1950948275862069,0.1414090909090909,0.19707692307692307,0.2135
2,1,1,0,6,16.04299999999999,16,71,9,4,2,5,17.506999999999987,3.537999999999997,1.646999999999999,1.2199999999999993,20,11,4,7,79,16,4,7,6,1,72,6,6,L,0.22160759493670884,0.221125,0.41174999999999984,0.17428571428571427
2,1,2,0,9,19.153999999999986,17,83,69,61,71,66,20.129999999999985,0.7319999999999998,0.9759999999999995,0.7929999999999997,20,2,5,3,88,3,5,3,4,1,48,4,6,L,0.22874999999999998,0.244,0.19519999999999998,0.2643333333333333
2,2,3,0,9,16.34799999999999,14,79,67,66,69,70,16.957999999999988,0.8539999999999996,0.305,2.1349999999999985,17,4,2,6,82,4,2,6,4,1,48,4,6,L,0.20680487804878048,0.2135,0.1525,0.3558333333333333
2,2,4,0,8,22.447999999999983,19,128,114,119,109,117,24.27799999999998,0.366,0.6709999999999998,3.2329999999999974,20,3,5,9,139,3,5,11,2,1,24,2,6,L,0.1746618705035971,0.122,0.13419999999999999,0.29390909090909084
2,3,5,0,6,15.066999999999988,18,78,6,11,9,12,15.127999999999988,2.683999999999998,4.269999999999997,0.183,19,7,11,1,79,13,16,1,6,1,72,6,6,L,0.19149367088607594,0.20646153846153845,0.266875,0.183
2,3,6,0,3,19.580999999999985,20,96,26,36,25,27,20.251999999999985,2.1349999999999985,1.2199999999999993,1.4029999999999991,20,8,4,5,98,12,4,8,5,1,60,5,6,L,0.2066530612244898,0.17791666666666667,0.30499999999999994,0.175375
2,4,7,0,9,8.478999999999994,17,41,71,96,85,95,10.674999999999992,7.990999999999993,1.2199999999999993,10.735999999999992,20,13,4,16,52,24,5,44,4,0.5,22,3.25,6,L,0.20528846153846153,0.3329583333333333,0.244,0.24399999999999997
2,4,8,0,6,16.591999999999988,15,76,4,7,1,10,18.055999999999987,0.9149999999999996,7.990999999999993,2.8669999999999978,20,5,12,10,87,5,21,13,6,1,72,6,6,L,0.20754022988505746,0.183,0.38052380952380943,0.22053846153846152
2,5,9,0,1,31.231999999999974,16,150,74,82,57,44,31.719999999999974,2.439999999999998,4.6969999999999965,0.9149999999999996,19,8,7,4,153,9,11,4,3,0,15,3.75,6,L,0.2073202614379085,0.2711111111111111,0.4269999999999998,0.22875
2,5,10,0,3,50.69099999999996,18,232,26,34,32,27,54.594999999999956,2.1959999999999984,0.183,3.1109999999999975,20,7,1,11,249,7,1,15,5,1,60,5,6,L,0.2192570281124498,0.31371428571428567,0.183,0.20739999999999997
2,6,11,1,3,17.750999999999987,20,85,30,26,14,51,18.726999999999986,1.4029999999999991,10.308999999999992,9.393999999999993,20,5,16,16,92,6,47,42,5,0,20,5,6,L,0.20355434782608695,0.2338333333333333,0.21934042553191488,0.22366666666666665
2,6,12,1,7,12.50499999999999,15,60,9,8,4,10,15.371999999999987,1.3419999999999992,2.500999999999998,1.646999999999999,20,5,8,6,76,5,11,8,6,1,72,6,6,L,0.2022631578947368,0.26839999999999997,0.22736363636363635,0.20587499999999997
2,7,13,1,15,20.434999999999985,17,93,17,13,117,86,23.118999999999982,17.018999999999988,0.122,0.305,20,17,2,3,103,71,2,3,6,0,17,4.25,6,L,0.22445631067961164,0.23970422535211267,0.061,0.10166666666666667
2,7,14,1,8,18.543999999999986,19,92,101,46,62,104,21.227999999999984,10.491999999999992,1.4029999999999991,1.4029999999999991,20,18,7,7,106,46,7,7,2,0,13,3.25,6,L,0.2002641509433962,0.2280869565217391,0.20042857142857143,0.2004285714285714
2,8,15,1,15,18.665999999999986,19,81,15,18,22,24,19.214999999999986,1.585999999999999,2.2569999999999983,0.122,20,6,10,2,86,7,11,2,6,1,72,6,6,L,0.2234302325581395,0.22657142857142853,0.2051818181818182,0.061
2,8,16,1,7,13.48099999999999,17,74,4,9,10,112,26.90099999999998,0.061,1.585999999999999,2.1349999999999985,20,1,6,8,121,1,6,10,6,0.5,38,5,6,L,0.22232231404958677,0.061,0.2643333333333333,0.21349999999999997
2,9,17,1,1,20.495999999999984,20,95,10,77,69,37,35.867999999999974,0.488,0.6709999999999998,1.585999999999999,20,2,4,6,160,2,5,7,3,0,18,4.5,6,L,0.22417499999999999,0.244,0.13419999999999999,0.22657142857142856
2,9,18,1,15,15.371999999999987,20,79,13,20,95,21,21.410999999999984,2.1959999999999984,1.2199999999999993,1.585999999999999,20,8,3,4,105,9,3,5,6,0.5,39,5.25,6,L,0.20391428571428571,0.24399999999999997,0.40666666666666657,0.3172
2,10,19,1,2,29.828999999999976,16,152,56,54,52,4,30.682999999999975,2.561999999999998,6.8319999999999945,10.369999999999992,20,9,14,15,157,10,31,41,4,0.5,30,4.5,6,L,0.19543312101910829,0.2562,0.22038709677419355,0.25292682926829263
2,10,20,1,15,17.018999999999988,19,92,20,16,43,63,17.567999999999987,5.062999999999996,7.197999999999994,0.488,20,12,16,3,95,21,23,4,6,0,21,5.25,6,L,0.18492631578947366,0.24109523809523806,0.3129565217391304,0.122
2,11,21,1,3,46.420999999999964,18,190,32,82,36,25,46.542999999999964,5.977999999999995,0.183,3.3549999999999973,19,14,1,11,191,26,1,13,5,0.5,33,4.5,6,L,0.2436806282722513,0.2299230769230769,0.183,0.25807692307692304
2,11,22,1,2,20.068999999999985,18,91,58,93,53,95,23.301999999999982,2.683999999999998,2.3789999999999982,1.8299999999999987,20,8,10,5,104,13,13,6,4,0,14,3.5,6,L,0.2240576923076923,0.20646153846153845,0.183,0.30499999999999994
2,12,23,1,7,13.724999999999989,19,61,8,4,9,12,19.031999999999986,0.5489999999999999,1.463999999999999,3.2939999999999974,20,2,8,12,77,2,8,18,6,1,72,6,6,L,0.24716883116883115,0.27449999999999997,0.183,0.183
2,12,24,1,15,25.49799999999998,20,131,16,24,49,103,25.55899999999998,6.038999999999995,2.439999999999998,6.038999999999995,20,13,13,11,132,24,17,27,6,0,18,4.5,6,L,0.19362878787878787,0.251625,0.14352941176470588,0.22366666666666662
2,13,25,1,15,18.055999999999987,19,91,23,19,17,22,20.373999999999985,0.8539999999999996,0.8539999999999996,0.6099999999999999,20,5,3,3,102,5,4,3,6,1,72,6,6,L,0.19974509803921567,0.17079999999999998,0.2135,0.20333333333333334
2,13,26,1,7,9.820999999999993,14,45,1,10,9,93,11.528999999999991,0.8539999999999996,0.061,3.2939999999999974,19,3,1,7,51,3,1,11,6,0.5,39,5.25,6,L,0.22605882352941176,0.2846666666666666,0.061,0.2994545454545454
2,14,27,1,7,19.214999999999986,16,95,4,7,11,49,19.275999999999986,5.062999999999996,0.061,10.796999999999992,17,12,1,16,96,19,1,59,6,0.5,40,5.5,6,L,0.20079166666666665,0.2664736842105263,0.061,0.183
2,14,28,1,15,21.776999999999983,19,105,13,15,30,25,22.874999999999982,3.1109999999999975,4.391999999999997,2.9889999999999977,20,8,12,7,107,9,21,14,6,0,22,5.5,6,L,0.21378504672897194,0.3456666666666666,0.2091428571428571,0.2135
2,15,29,1,14,20.678999999999984,17,90,94,86,91,114,21.288999999999984,1.2809999999999993,1.0369999999999995,4.879999999999996,18,4,6,11,91,4,7,16,3,0.5,20,2.75,6,L,0.23394505494505494,0.3202499999999999,0.14814285714285713,0.30499999999999994
2,15,30,1,11,53.13099999999996,19,202,65,61,81,103,53.74099999999996,0.7929999999999997,2.0739999999999985,1.524999999999999,20,7,7,4,206,9,9,5,4,0,13,3.25,6,L,0.260878640776699,0.08811111111111111,0.23044444444444442,0.305
2,16,31,1,14,55.936999999999955,18,233,91,86,85,36,56.058999999999955,0.366,3.659999999999997,4.147999999999997,20,2,9,7,235,2,17,12,3,0.5,23,3.5,6,L,0.23854893617021275,0.183,0.2152941176470588,0.3456666666666666
2,16,32,1,11,14.334999999999988,14,70,64,114,120,119,17.262999999999987,8.112999999999994,20.556999999999984,10.857999999999992,20,15,17,16,84,36,99,50,4,0.5,16,2.5,6,L,0.20551190476190476,0.2253611111111111,0.20764646464646463,0.21715999999999996
3,1,1,0,2,16.04299999999999,20,81,57,4,1,9,20.800999999999984,7.136999999999994,7.746999999999994,1.8909999999999987,20,16,15,7,104,33,36,10,4,0.5,40,5.5,6,L,0.20000961538461537,0.21627272727272726,0.21519444444444444,0.1891
3,1,2,0,9,18.909999999999986,20,94,67,70,69,95,19.275999999999986,0.122,1.1589999999999994,13.29799999999999,20,2,4,15,96,2,6,50,4,0.5,27,3.75,6,L,0.20079166666666665,0.061,0.19316666666666665,0.26596
3,2,3,0,8,14.212999999999989,17,58,15,27,17,112,31.170999999999978,0.183,0.122,0.061,20,1,1,1,125,1,1,1,2,0,19,4.75,6,L,0.24936799999999998,0.183,0.122,0.061
3,2,4,0,5,18.604999999999986,17,90,45,44,40,39,22.386999999999983,0.7319999999999998,3.4159999999999973,1.646999999999999,20,4,10,8,106,4,11,8,5,1,60,5,6,L,0.21119811320754714,0.183,0.3105454545454545,0.20587499999999997
3,3,5,0,6,15.432999999999987,16,73,5,4,10,9,16.957999999999988,6.160999999999995,0.5489999999999999,5.672999999999996,20,15,4,15,84,22,4,24,6,1,72,6,6,L,0.20188095238095236,0.2800454545454545,0.13724999999999998,0.23637499999999995
3,3,6,0,9,58.43799999999995,15,247,67,62,19,18,59.59699999999995,5.062999999999996,4.330999999999997,0.7319999999999998,17,13,14,3,249,21,18,3,4,0,20,5,6,L,0.2393453815261044,0.24109523809523808,0.24061111111111108,0.244
3,4,7,0,1,53.37499999999996,16,243,83,80,81,33,53.86299999999996,0.9149999999999996,0.9759999999999995,0.122,19,4,2,1,246,4,2,1,3,0.5,23,3.5,6,L,0.21895528455284552,0.22874999999999998,0.4879999999999998,0.122
3,4,8,0,10,33.671999999999976,17,162,86,21,18,15,36.35599999999997,7.685999999999994,11.650999999999991,13.05399999999999,20,15,17,16,168,35,50,65,3,0.5,39,5.25,6,L,0.21640476190476188,0.21959999999999996,0.23301999999999998,0.20083076923076923
3,5,9,0,9,21.837999999999983,19,102,64,72,70,23,23.118999999999982,1.1589999999999994,2.1959999999999984,10.552999999999992,20,8,9,15,108,8,13,41,4,0.5,30,4.5,6,L,0.2140648148148148,0.144875,0.16892307692307693,0.257390243902439
3,5,10,0,3,19.702999999999985,19,88,28,34,25,26,21.654999999999983,0.9149999999999996,1.2809999999999993,10.308999999999992,20,5,7,16,100,6,8,48,5,1,60,5,6,L,0.21654999999999996,0.1525,0.160125,0.2147708333333333
3,6,11,1,7,19.885999999999985,18,83,4,6,12,10,20.983999999999984,3.598999999999997,2.439999999999998,1.3419999999999992,20,13,7,5,88,20,7,5,6,1,72,6,6,L,0.23845454545454542,0.17994999999999997,0.3485714285714285,0.26839999999999997
3,6,12,1,3,13.968999999999989,17,70,31,78,33,35,15.310999999999988,3.4159999999999973,0.9759999999999995,2.439999999999998,20,13,6,10,75,13,6,13,5,0.5,33,4.5,6,L,0.20414666666666664,0.2627692307692307,0.16266666666666668,0.18769230769230769
3,7,13,1,15,23.91199999999998,20,109,13,19,120,117,24.64399999999998,0.122,7.685999999999994,2.1959999999999984,20,1,16,8,112,1,41,8,6,0,16,4,6,L,0.22003571428571428,0.122,0.18746341463414634,0.2744999999999999
3,7,14,1,7,19.397999999999985,18,109,4,11,86,9,19.519999999999985,6.526999999999995,7.563999999999994,1.3419999999999992,20,11,17,6,111,17,32,6,6,0.5,39,5.25,6,L,0.17585585585585586,0.3839411764705881,0.23637499999999997,0.22366666666666665
3,8,15,1,7,9.881999999999993,18,43,1,6,38,12,11.95599999999999,8.539999999999994,0.244,0.061,20,15,1,1,55,34,1,1,6,0.5,41,5.75,6,L,0.21738181818181818,0.2511764705882353,0.244,0.061
3,8,16,1,11,38.12499999999997,18,176,61,19,64,88,40.44299999999997,8.966999999999993,0.488,0.366,20,18,3,2,182,42,3,2,4,0,17,4.25,6,L,0.2222142857142857,0.2135,0.16266666666666665,0.183
3,9,17,1,14,50.99599999999996,18,236,39,86,85,45,57.76699999999995,1.3419999999999992,1.8909999999999987,8.295999999999994,20,5,7,16,270,6,9,41,3,0,16,4,6,L,0.21395185185185184,0.22366666666666662,0.2101111111111111,0.20234146341463413
3,9,18,1,1,13.48099999999999,20,63,13,113,120,78,44.346999999999966,0.122,0.183,0.5489999999999999,20,2,1,3,201,2,1,3,3,0,13,3.25,6,L,0.22063184079601988,0.061,0.183,0.183
3,10,19,1,7,13.54199999999999,17,65,2,82,9,29,13.663999999999989,5.001999999999996,5.672999999999996,36.66099999999997,19,12,11,15,67,18,19,140,6,0,20,5,6,L,0.20394029850746268,0.27788888888888885,0.298578947368421,0.26186428571428566
3,10,20,1,12,45.444999999999965,15,181,91,45,56,46,46.78699999999996,2.500999999999998,0.366,0.183,19,13,1,1,186,17,1,1,5,0,17,4.25,6,L,0.25154301075268815,0.14711764705882352,0.366,0.183
3,11,21,1,14,25.19299999999998,20,119,90,114,95,92,28.852999999999977,9.332999999999993,0.305,3.3549999999999973,20,19,1,13,135,43,1,18,3,0.5,20,2.75,6,L,0.21372592592592593,0.21704651162790697,0.305,0.18638888888888888
3,11,22,1,8,32.39099999999998,17,144,98,108,66,76,32.939999999999976,2.744999999999998,8.051999999999994,0.6099999999999999,20,10,17,2,147,13,33,2,2,0,11,2.75,6,L,0.22408163265306122,0.21115384615384614,0.24399999999999997,0.305
3,12,23,1,3,43.00499999999997,16,194,71,113,94,87,50.56899999999996,3.3549999999999973,0.9149999999999996,3.659999999999997,20,7,3,11,223,9,4,15,5,0,12,3,6,L,0.22676681614349772,0.3727777777777777,0.22875,0.244
3,12,24,1,2,35.196999999999974,15,166,57,59,97,60,43.12699999999997,0.8539999999999996,2.3179999999999983,1.0369999999999995,20,5,6,5,188,5,7,5,4,0.5,26,3.5,6,L,0.22939893617021273,0.1708,0.33114285714285713,0.2074
3,13,25,1,8,32.939999999999976,16,153,98,88,39,19,33.183999999999976,3.3549999999999973,2.9889999999999977,24.09499999999998,17,12,12,16,154,18,15,96,2,0,16,4,6,L,0.21548051948051944,0.18638888888888888,0.19926666666666665,0.2509895833333333
3,13,26,1,13,25.61999999999998,17,109,115,109,84,62,28.852999999999977,0.244,2.0129999999999986,2.622999999999998,20,2,7,7,127,2,10,8,2,0,11,2.75,6,L,0.22718897637795274,0.122,0.2013,0.32787499999999997
3,14,27,1,13,19.763999999999985,20,82,15,96,95,54,58.01099999999995,0.061,0.061,0.305,20,1,1,2,256,1,1,2,2,0,16,4,6,L,0.22660546874999998,0.061,0.061,0.1525
3,14,28,1,8,45.078999999999965,20,201,102,99,98,79,45.444999999999965,0.7929999999999997,0.7929999999999997,1.0979999999999994,20,3,3,2,202,3,3,3,2,0.5,15,2.25,6,L,0.22497524752475245,0.2643333333333333,0.2643333333333333,0.366
3,15,29,1,3,30.133999999999975,20,139,27,33,83,20,31.902999999999974,0.6709999999999998,9.149999999999993,9.515999999999993,20,3,16,16,143,3,43,40,5,0,19,4.75,6,L,0.2230979020979021,0.22366666666666665,0.21279069767441858,0.23789999999999997
3,15,30,1,7,20.617999999999984,20,92,7,1,59,11,20.739999999999984,1.1589999999999994,6.587999999999995,3.537999999999997,20,7,16,12,93,9,33,20,6,0.5,40,5.5,6,L,0.22301075268817203,0.12877777777777777,0.19963636363636364,0.1769
4,1,1,0,8,13.907999999999989,18,71,119,110,113,16,15.554999999999987,1.9519999999999986,7.990999999999993,1.3419999999999992,20,5,13,5,77,9,29,5,2,0.5,18,3,6,L,0.202012987012987,0.21688888888888885,0.275551724137931,0.26839999999999997
4,1,2,0,10,18.238999999999987,17,71,2,34,96,12,47.64099999999996,0.061,0.061,0.5489999999999999,20,1,1,2,204,1,1,2,3,0,20,5,6,L,0.23353431372549016,0.061,0.061,0.27449999999999997
4,2,3,0,5,26.71799999999998,20,114,41,43,37,6,27.754999999999978,0.366,0.5489999999999999,10.674999999999992,20,4,2,17,120,4,2,58,5,0.5,36,5.25,6,L,0.23129166666666665,0.0915,0.27449999999999997,0.18405172413793103
4,2,4,0,3,21.227999999999984,19,88,18,15,112,118,24.33899999999998,42.15099999999997,1.585999999999999,0.9759999999999995,20,19,11,2,100,189,14,2,5,0,16,4,6,L,0.24338999999999997,0.223021164021164,0.11328571428571428,0.4879999999999998
4,3,5,0,9,9.393999999999993,15,45,68,70,87,103,9.454999999999993,9.332999999999993,2.439999999999998,3.476999999999997,16,13,9,11,46,40,11,19,4,0,13,3.25,6,L,0.20554347826086955,0.23332499999999998,0.2218181818181818,0.183
4,3,6,0,1,42.82199999999997,16,175,77,83,35,25,42.88299999999997,2.805999999999998,1.585999999999999,1.2199999999999993,17,11,3,2,176,17,3,2,3,0,16,4,6,L,0.24365340909090905,0.16505882352941176,0.5286666666666664,0.6099999999999999
4,4,7,0,6,15.676999999999987,19,83,4,10,8,9,15.798999999999987,5.001999999999996,2.3179999999999983,2.8669999999999978,20,9,9,8,85,12,10,12,6,1,72,6,6,L,0.18587058823529412,0.4168333333333332,0.23179999999999998,0.23891666666666664
4,4,8,0,7,14.334999999999988,20,70,16,92,17,18,20.373999999999985,2.561999999999998,0.488,1.0369999999999995,20,8,2,4,98,12,2,4,6,0.5,39,5.25,6,L,0.20789795918367346,0.21349999999999997,0.244,0.25925
4,5,9,0,6,35.745999999999974,19,155,2,5,8,10,35.806999999999974,2.9279999999999977,2.500999999999998,0.122,20,9,7,1,156,11,10,1,6,1,72,6,6,L,0.22953205128205126,0.26618181818181813,0.2501,0.122
4,5,10,0,1,26.53499999999998,20,129,80,50,74,14,28.974999999999977,10.674999999999992,0.061,0.122,20,14,1,1,144,35,1,1,3,0,16,4,6,L,0.20121527777777776,0.30499999999999994,0.061,0.122
4,6,11,1,2,19.092999999999986,16,96,58,54,43,109,20.739999999999984,0.366,6.8319999999999945,0.183,20,3,15,2,102,3,32,2,4,0,15,3.75,6,L,0.2033333333333333,0.122,0.2135,0.0915
4,6,12,1,1,27.571999999999978,16,106,79,84,78,2,27.754999999999978,0.122,3.476999999999997,1.1589999999999994,18,1,11,2,108,1,12,3,3,0.5,24,3.75,6,L,0.2569907407407407,0.122,0.28974999999999995,0.3863333333333333
4,7,13,1,14,24.94899999999998,20,109,93,94,49,40,25.74199999999998,3.1109999999999975,0.183,3.1109999999999975,20,12,2,9,114,18,2,12,3,0,15,3.75,6,L,0.22580701754385962,0.1728333333333333,0.0915,0.25925
4,7,14,1,8,36.35599999999997,20,158,106,104,63,33,36.84399999999997,5.672999999999996,0.244,1.7079999999999989,20,14,2,5,161,24,2,7,2,0,13,3.25,6,L,0.2288447204968944,0.23637499999999997,0.122,0.244
4,8,15,1,1,46.359999999999964,14,204,82,77,59,100,49.77599999999996,0.061,0.7929999999999997,5.672999999999996,20,1,4,12,224,1,4,23,3,0,12,3,6,L,0.2222142857142857,0.061,0.19824999999999998,0.24665217391304345
4,8,16,1,14,57.156999999999954,16,261,2,117,68,9,89.05999999999993,0.183,0.366,0.122,20,1,1,1,398,1,1,1,3,0,18,4.5,6,L,0.22376884422110552,0.183,0.366,0.122
4,9,17,1,15,23.60699999999998,20,124,16,17,24,21,25.19299999999998,0.5489999999999999,3.2939999999999974,3.476999999999997,20,3,9,10,128,3,14,14,6,1,72,6,6,L,0.19682031249999998,0.183,0.23528571428571426,0.24835714285714283
4,9,18,1,7,9.698999999999993,12,42,4,10,11,26,10.308999999999992,6.465999999999995,6.465999999999995,1.585999999999999,16,15,15,5,46,34,27,8,6,0.5,41,5.75,6,L,0.2241086956521739,0.19017647058823528,0.23948148148148146,0.19824999999999998
4,10,19,1,2,66.1850000000002,16,283,3,55,37,38,72.7730000000002,1.646999999999999,0.427,1.8299999999999987,20,6,2,12,308,7,2,14,4,0,20,5,6,L,0.236275974025974,0.2352857142857142,0.2135,0.1307142857142857
4,10,20,1,3,30.987999999999975,20,132,26,30,34,61,55.509999999999955,0.244,1.9519999999999986,0.6709999999999998,20,2,8,3,228,2,11,3,5,0.5,34,4.75,6,L,0.24346491228070172,0.122,0.17745454545454545,0.22366666666666665
4,11,21,1,2,21.715999999999983,20,92,60,58,107,102,22.752999999999982,0.9759999999999995,4.452999999999997,0.427,20,6,11,5,100,6,25,5,4,0,12,3,6,L,0.22752999999999998,0.16266666666666665,0.17812,0.0854
4,11,22,1,13,32.32999999999998,20,142,66,45,39,72,39.95499999999997,4.330999999999997,1.0369999999999995,3.9649999999999967,20,12,2,14,172,18,2,23,2,0,18,4.5,6,L,0.23229651162790696,0.24061111111111108,0.5184999999999998,0.1723913043478261
4,12,23,1,14,31.109999999999975,20,134,89,91,104,88,31.353999999999974,2.683999999999998,3.476999999999997,1.9519999999999986,20,12,12,10,136,16,20,12,3,0.5,20,2.75,6,L,0.2305441176470588,0.16775,0.17385,0.16266666666666665
4,12,24,1,15,18.604999999999986,17,95,14,22,13,75,19.336999999999986,1.0369999999999995,7.441999999999994,19.580999999999985,20,6,15,15,99,6,37,96,6,0.5,39,5.25,6,L,0.19532323232323232,0.17283333333333334,0.20113513513513512,0.20396874999999998
4,13,25,1,1,27.510999999999978,15,140,53,36,15,73,29.645999999999976,17.018999999999988,19.519999999999985,6.160999999999995,20,19,17,15,145,66,94,25,3,0,18,4.5,6,L,0.20445517241379307,0.25786363636363635,0.20765957446808508,0.24643999999999996
4,13,26,1,12,45.078999999999965,16,196,104,6,4,86,74.05399999999995,0.305,21.471999999999984,0.183,20,1,17,2,296,2,97,2,5,0,17,4.25,6,L,0.2501824324324324,0.1525,0.22136082474226804,0.0915
4,14,27,1,15,6.8929999999999945,12,31,17,15,18,22,6.953999999999994,1.2809999999999993,2.622999999999998,2.3789999999999982,13,7,7,9,32,8,9,12,6,1,72,6,6,L,0.2173125,0.160125,0.2914444444444444,0.19824999999999998
4,14,28,1,1,38.30799999999997,15,177,72,78,74,75,40.13799999999997,0.7319999999999998,1.1589999999999994,0.244,17,3,4,2,181,3,4,2,3,0.5,22,3.25,6,L,0.22175690607734802,0.244,0.28974999999999995,0.122
4,15,29,1,8,18.604999999999986,20,108,99,106,102,98,30.49999999999998,1.0369999999999995,0.9759999999999995,1.8299999999999987,20,4,4,4,166,4,4,6,2,1,24,2,6,L,0.18373493975903613,0.25925,0.24399999999999997,0.3049999999999999
4,15,30,1,12,34.647999999999975,19,158,48,113,59,114,34.952999999999975,1.0979999999999994,15.493999999999987,0.366,20,3,17,1,160,3,61,1,5,0,13,3.25,6,L,0.21845625,0.3659999999999998,0.254,0.366
5,1,1,0,6,23.301999999999982,20,104,1,4,12,36,24.70499999999998,5.855999999999995,5.062999999999996,2.0129999999999986,20,14,10,7,111,23,17,7,6,0.5,41,5.75,6,L,0.22256756756756754,0.25460869565217387,0.29782352941176465,0.28757142857142853
5,1,2,0,2,29.462999999999976,20,131,59,107,104,50,30.499999999999975,2.9279999999999977,0.9759999999999995,3.2939999999999974,20,6,3,9,139,9,4,15,4,0,12,3,6,L,0.21942446043165464,0.32533333333333325,0.24399999999999997,0.2196
5,2,3,0,1,10.613999999999992,17,45,81,19,78,73,13.54199999999999,3.9649999999999967,0.061,2.3789999999999982,20,11,1,8,59,21,1,11,3,0.5,24,3.75,6,L,0.22952542372881354,0.1888095238095238,0.061,0.21627272727272726
5,2,4,0,6,19.519999999999985,19,102,4,2,32,102,21.837999999999983,20.556999999999984,0.5489999999999999,0.122,20,17,2,1,109,79,2,1,6,0,19,4.75,6,L,0.20034862385321098,0.2602151898734177,0.27449999999999997,0.122
5,3,5,0,7,20.861999999999984,20,101,15,17,16,54,22.325999999999983,2.2569999999999983,0.427,5.306999999999996,20,8,2,14,106,9,2,21,6,0.5,40,5.5,6,L,0.21062264150943394,0.2507777777777777,0.2135,0.25271428571428567
5,3,6,0,5,15.554999999999987,19,74,41,47,85,102,17.384999999999987,1.0979999999999994,1.8909999999999987,8.966999999999993,20,3,5,15,85,3,6,32,5,0,15,3.75,6,L,0.20452941176470588,0.36599999999999994,0.3151666666666666,0.28021874999999996
5,4,7,0,7,17.262999999999987,18,90,13,22,108,79,17.323999999999987,4.208999999999997,2.8669999999999978,6.038999999999995,19,12,7,10,91,17,11,28,6,0,17,4.25,6,L,0.19037362637362637,0.2475882352941176,0.2606363636363636,0.21567857142857141
5,4,8,0,10,48.49499999999996,18,192,87,96,95,91,49.28799999999996,1.646999999999999,0.9759999999999995,0.488,20,7,5,3,200,7,5,3,3,1,36,3,6,L,0.24643999999999996,0.23528571428571424,0.19519999999999998,0.16266666666666665
5,5,9,0,7,23.301999999999982,18,119,18,15,24,23,27.449999999999978,0.122,2.3789999999999982,17.201999999999988,20,1,8,17,135,1,9,69,6,1,72,6,6,L,0.2033333333333333,0.122,0.2643333333333333,0.24930434782608693
5,5,10,0,6,10.064999999999992,19,48,5,1,7,8,13.48099999999999,1.463999999999999,3.2329999999999974,1.585999999999999,20,6,10,6,60,6,16,6,6,1,72,6,6,L,0.22468333333333332,0.244,0.2020625,0.2643333333333333
5,6,11,1,1,31.719999999999974,19,142,74,76,78,51,32.32999999999998,0.7929999999999997,0.427,3.9649999999999967,20,4,2,9,145,4,2,14,3,0.5,22,3.25,6,L,0.22296551724137928,0.19824999999999998,0.2135,0.2832142857142857
5,6,12,1,7,10.308999999999992,18,62,11,1,2,4,11.528999999999991,0.9149999999999996,6.404999999999995,1.463999999999999,20,7,15,9,67,7,30,10,6,1,72,6,6,L,0.17207462686567163,0.1307142857142857,0.2135,0.1464
5,7,13,1,12,34.220999999999975,17,171,46,16,47,87,38.49099999999997,2.439999999999998,0.427,1.8299999999999987,20,6,4,6,188,8,4,10,5,0,19,4.75,6,L,0.20473936170212764,0.30499999999999994,0.10675,0.183
5,7,14,1,2,23.057999999999982,20,112,3,33,54,84,62.585999999999956,7.746999999999994,2.439999999999998,0.061,20,18,6,1,264,37,8,1,4,0,18,4.5,6,L,0.23706818181818176,0.2093783783783784,0.30499999999999994,0.061
5,8,15,1,2,23.057999999999982,20,101,58,56,49,53,23.42399999999998,0.061,2.683999999999998,1.524999999999999,20,1,9,6,104,1,14,8,4,1,48,4,6,L,0.2252307692307692,0.061,0.1917142857142857,0.190625
5,8,16,1,3,21.654999999999983,18,99,32,30,25,111,21.715999999999983,3.1109999999999975,3.3549999999999973,3.476999999999997,19,9,9,11,100,15,15,18,5,0.5,32,4.25,6,L,0.21715999999999996,0.20739999999999997,0.22366666666666665,0.19316666666666665
5,9,17,1,12,43.18799999999997,20,180,39,42,21,84,43.55399999999997,0.366,12.68799999999999,2.1959999999999984,20,3,18,7,182,3,56,8,5,0,19,4.75,6,L,0.23930769230769228,0.122,0.22657142857142853,0.27449999999999997
5,9,18,1,3,24.88799999999998,18,110,27,32,68,28,25.37599999999998,1.2199999999999993,3.659999999999997,0.061,20,6,11,1,113,9,13,1,5,0.5,34,4.75,6,L,0.2245663716814159,0.13555555555555554,0.2815384615384615,0.061
5,10,19,1,14,21.654999999999983,19,104,3,101,5,8,53.86299999999996,3.781999999999997,9.942999999999993,1.0369999999999995,20,11,18,2,230,15,42,3,3,0.5,38,5,6,L,0.2341869565217391,0.2521333333333333,0.23673809523809522,0.3456666666666666
5,10,20,1,15,21.349999999999984,17,108,22,13,23,24,22.264999999999983,3.2329999999999974,5.062999999999996,0.7319999999999998,20,8,14,5,115,11,24,5,6,1,72,6,6,L,0.19360869565217392,0.29390909090909084,0.2109583333333333,0.1464
5,11,21,1,7,17.018999999999988,20,89,1,2,9,8,18.909999999999986,1.7079999999999989,3.1109999999999975,3.659999999999997,20,7,8,6,99,8,11,9,6,1,72,6,6,L,0.191010101010101,0.21349999999999997,0.28281818181818175,0.40666666666666657
5,11,22,1,15,19.580999999999985,20,96,14,21,22,23,23.66799999999998,0.427,1.585999999999999,1.646999999999999,20,3,5,8,120,3,6,11,6,1,72,6,6,L,0.19723333333333332,0.14233333333333334,0.2643333333333333,0.14972727272727274
5,12,23,1,12,13.11499999999999,17,52,44,74,70,77,16.774999999999988,28.242999999999977,11.589999999999991,2.3179999999999983,20,19,18,6,67,120,63,8,5,0,15,3.75,6,L,0.25037313432835817,0.2353583333333333,0.18396825396825398,0.28974999999999995
5,12,24,1,3,20.739999999999984,20,91,32,34,110,31,22.386999999999983,10.186999999999992,2.2569999999999983,1.3419999999999992,20,15,9,6,96,39,11,8,5,0.5,32,4.25,6,L,0.23319791666666664,0.2612051282051282,0.2051818181818182,0.16774999999999998
5,13,25,1,2,43.18799999999997,16,187,54,25,34,52,43.37099999999997,1.2199999999999993,2.3179999999999983,3.3549999999999973,17,3,9,9,188,6,12,12,4,0,18,4.5,6,L,0.23069680851063828,0.20333333333333334,0.19316666666666665,0.2795833333333333
5,13,26,1,15,18.360999999999986,15,81,15,16,18,73,18.421999999999986,0.061,7.197999999999994,0.7319999999999998,16,1,12,2,82,1,30,2,6,0.5,39,5.25,6,L,0.22465853658536583,0.061,0.2399333333333333,0.366
5,14,27,1,8,11.83399999999999,16,74,100,98,18,103,12.87099999999999,2.9889999999999977,11.467999999999991,0.061,20,9,16,1,79,10,36,1,2,0.5,18,3,6,L,0.16292405063291138,0.2989,0.3185555555555555,0.061
5,14,28,1,2,15.676999999999987,15,78,58,60,52,51,18.665999999999986,1.585999999999999,1.0369999999999995,3.9649999999999967,20,8,7,12,92,10,7,16,4,1,48,4,6,L,0.20289130434782607,0.1586,0.14814285714285713,0.24781249999999996
5,15,29,1,7,16.713999999999988,17,83,3,2,4,8,19.153999999999986,4.818999999999996,0.061,2.0129999999999986,20,16,1,8,96,25,1,11,6,1,72,6,6,L,0.19952083333333331,0.19276,0.061,0.183
5,15,30,1,15,23.057999999999982,16,113,13,17,14,96,23.301999999999982,0.7929999999999997,6.587999999999995,8.478999999999994,18,2,12,15,115,2,28,39,6,0.5,39,5.25,6,L,0.2026260869565217,0.39649999999999996,0.23528571428571426,0.2174102564102564
5,16,31,1,8,12.01699999999999,18,67,97,71,67,12,16.10399999999999,11.040999999999991,4.269999999999997,71.43100000000081,20,18,11,17,84,47,15,314,2,0,16,4,6,L,0.1917142857142857,0.23491489361702125,0.2846666666666666,0.22748726114649678
5,16,32,1,3,24.21699999999998,15,103,27,29,35,17,26.35199999999998,0.183,4.940999999999996,22.569999999999983,20,1,12,17,111,1,19,89,5,0.5,36,5.25,6,L,0.23740540540540536,0.183,0.26005263157894737,0.2535955056179775
6,1,1,0,6,27.266999999999978,20,130,11,8,7,12,28.547999999999977,3.842999999999997,4.574999999999997,0.061,20,8,10,1,138,13,14,1,6,1,72,6,6,L,0.2068695652173913,0.29561538461538456,0.32678571428571423,0.061
6,1,2,0,1,23.42399999999998,17,97,83,79,104,61,24.03399999999998,2.744999999999998,3.3549999999999973,0.6099999999999999,20,10,7,4,104,13,13,4,3,0,12,3,6,L,0.23109615384615384,0.21115384615384614,0.25807692307692304,0.1525
6,2,3,0,7,16.835999999999988,17,73,13,15,16,18,23.48499999999998,1.7689999999999988,0.122,6.343999999999995,20,9,1,10,102,11,2,20,6,1,72,6,6,L,0.23024509803921567,0.1608181818181818,0.061,0.3171999999999999
6,2,4,0,5,22.569999999999983,19,131,41,47,39,9,23.54599999999998,0.7929999999999997,6.526999999999995,5.7339999999999955,20,3,15,16,136,4,26,27,5,0.5,36,5.25,6,L,0.17313235294117646,0.19824999999999998,0.25103846153846154,0.21237037037037035
6,3,5,0,3,29.706999999999976,19,158,34,78,120,20,33.549999999999976,4.574999999999997,8.783999999999994,0.183,20,14,16,2,174,24,35,2,5,0,16,4,6,L,0.19281609195402297,0.190625,0.25097142857142857,0.0915
6,3,6,0,9,12.74899999999999,17,56,64,68,67,47,14.273999999999988,1.2809999999999993,0.5489999999999999,13.663999999999989,20,4,2,16,59,4,2,60,4,0.5,29,4.25,6,L,0.24193220338983049,0.3202499999999999,0.27449999999999997,0.22773333333333332
6,4,7,0,4,26.41299999999998,19,125,101,98,76,105,28.303999999999977,0.366,0.7929999999999997,5.7949999999999955,20,1,2,13,132,1,2,26,2,0.5,15,2.25,6,L,0.2144242424242424,0.366,0.39649999999999996,0.22288461538461535
6,4,8,0,5,46.78699999999996,17,217,114,117,48,91,54.04599999999996,0.305,1.2199999999999993,0.8539999999999996,20,1,4,1,245,1,4,1,5,0,12,3,6,L,0.22059591836734693,0.305,0.30499999999999994,0.8539999999999996
6,5,9,0,2,18.299999999999986,19,94,59,50,46,20,18.604999999999986,1.7079999999999989,9.027999999999993,14.395999999999988,20,8,15,17,96,10,32,70,4,0,19,4.75,6,L,0.19380208333333332,0.1708,0.28212499999999996,0.20565714285714284
6,5,10,0,9,27.815999999999978,20,130,2,93,63,36,55.631999999999955,0.061,0.427,7.624999999999994,20,1,4,17,248,1,4,32,4,0,18,4.5,6,L,0.22432258064516128,0.061,0.10675,0.23828124999999997
6,6,11,1,15,28.364999999999977,20,121,21,19,53,15,34.525999999999975,0.6709999999999998,12.44399999999999,2.9889999999999977,20,3,17,10,137,3,48,14,6,0.5,40,5.5,6,L,0.25201459854014596,0.22366666666666665,0.2592499999999999,0.2135
6,6,12,1,1,29.645999999999976,20,127,79,84,11,43,33.854999999999976,2.744999999999998,2.744999999999998,1.524999999999999,20,9,12,3,143,12,14,3,3,0,17,4.25,6,L,0.23674825174825173,0.22874999999999998,0.19607142857142856,0.5083333333333331
6,7,13,1,7,9.820999999999993,16,39,2,5,8,6,12.01699999999999,0.366,0.061,1.0979999999999994,20,2,1,6,46,2,1,6,6,1,72,6,6,L,0.2612391304347826,0.183,0.061,0.18299999999999997
6,7,14,1,3,27.449999999999978,19,119,27,34,25,73,27.510999999999978,0.9759999999999995,6.038999999999995,5.367999999999996,20,6,13,13,120,8,29,26,5,0.5,33,4.5,6,L,0.22925833333333331,0.122,0.2082413793103448,0.20646153846153845
6,8,15,1,7,21.410999999999984,19,99,10,1,11,101,21.593999999999983,5.977999999999995,2.1959999999999984,1.524999999999999,20,9,10,7,100,15,10,8,6,0.5,38,5,6,L,0.21593999999999997,0.39853333333333324,0.2196,0.190625
6,8,16,1,12,15.005999999999988,19,67,42,37,17,111,15.615999999999987,3.2939999999999974,6.587999999999995,3.4159999999999973,20,8,14,12,70,11,30,18,5,0,18,4.5,6,L,0.22308571428571428,0.2994545454545454,0.2196,0.18977777777777777
6,9,17,1,2,22.081999999999983,20,122,52,54,20,83,23.85099999999998,0.5489999999999999,6.221999999999995,2.3179999999999983,20,2,12,8,130,2,23,10,4,0,17,4.25,6,L,0.18346923076923077,0.27449999999999997,0.27052173913043476,0.23179999999999998
6,9,18,1,11,28.242999999999977,19,145,4,6,112,117,56.607999999999954,98.82000000000397,1.3419999999999992,0.5489999999999999,20,19,6,4,261,414,7,5,4,0,16,4,6,L,0.21688888888888885,0.238695652173913,0.1917142857142857,0.1098
6,10,19,1,7,14.517999999999988,18,67,11,2,50,3,14.761999999999988,5.855999999999995,1.524999999999999,0.6099999999999999,20,17,7,3,70,33,8,3,6,0.5,40,5.5,6,L,0.2108857142857143,0.17745454545454545,0.190625,0.20333333333333334
6,10,20,1,14,21.593999999999983,20,94,87,30,20,17,22.142999999999983,14.822999999999988,0.427,2.439999999999998,20,16,1,6,96,64,1,7,3,0,20,5,6,L,0.23065624999999998,0.23160937499999998,0.427,0.34857142857142853
6,11,21,1,15,20.068999999999985,20,100,13,14,24,22,22.508999999999983,0.9149999999999996,1.8909999999999987,3.476999999999997,20,4,4,13,114,4,6,18,6,1,72,6,6,L,0.19744736842105262,0.22875,0.31516666666666665,0.19316666666666665
6,11,22,1,2,19.580999999999985,19,96,38,88,114,60,38.18599999999997,0.183,0.061,0.122,20,1,1,2,170,1,1,2,4,0,14,3.5,6,L,0.22462352941176467,0.183,0.061,0.061
6,12,23,1,14,21.837999999999983,19,102,95,113,119,109,29.88999999999998,3.2329999999999974,1.8299999999999987,1.9519999999999986,20,12,9,10,133,14,10,12,3,0.5,15,2.25,6,L,0.22473684210526312,0.2309285714285714,0.183,0.16266666666666668
6,12,24,1,2,20.556999999999984,18,83,52,58,57,80,22.142999999999983,0.427,6.404999999999995,14.029999999999989,20,4,10,16,88,4,21,61,4,0.5,27,3.75,6,L,0.251625,0.10675,0.30499999999999994,0.22999999999999998
6,13,25,1,15,11.345999999999991,17,42,20,21,24,114,13.29799999999999,1.7079999999999989,0.8539999999999996,4.940999999999996,20,9,4,11,46,12,4,17,6,0.5,38,5,6,L,0.2890869565217391,0.14233333333333334,0.2135,0.29064705882352937
6,13,26,1,3,21.410999999999984,19,81,30,108,33,34,22.813999999999982,1.2199999999999993,0.183,1.0979999999999994,20,2,2,5,90,2,2,6,5,0.5,32,4.25,6,L,0.2534888888888889,0.6099999999999998,0.0915,0.183
6,14,27,1,3,25.55899999999998,20,116,27,60,29,33,26.65699999999998,1.7689999999999988,5.001999999999996,0.427,20,2,14,1,120,2,19,2,5,0.5,34,4.75,6,L,0.22214166666666665,0.8844999999999994,0.2632631578947368,0.2135
6,14,28,1,1,18.909999999999986,13,78,13,77,105,98,57.70599999999996,0.366,0.061,0.061,20,3,1,1,230,3,1,1,3,0,13,3.25,6,L,0.250895652173913,0.122,0.061,0.061
6,15,29,1,2,19.702999999999985,18,97,51,54,37,9,21.166999999999984,10.857999999999992,1.3419999999999992,2.8669999999999978,20,16,2,10,105,39,2,12,4,0,19,4.75,6,L,0.20159047619047618,0.2784102564102564,0.6709999999999997,0.23891666666666667
6,15,30,1,1,19.214999999999986,19,89,77,78,79,83,20.068999999999985,2.0739999999999985,1.8909999999999987,1.463999999999999,20,5,8,7,91,6,10,7,3,1,36,3,6,L,0.22053846153846152,0.34566666666666657,0.1891,0.20914285714285713
6,16,31,1,7,19.946999999999985,17,97,11,74,2,8,22.691999999999982,1.8299999999999987,5.123999999999996,1.2809999999999993,20,5,12,5,113,6,19,5,6,0.5,39,5.25,6,L,0.2008141592920354,0.305,0.26968421052631575,0.2562
6,16,32,1,3,30.255999999999975,20,136,35,33,28,104,32.75699999999998,2.3789999999999982,2.3789999999999982,9.759999999999993,20,9,7,16,148,11,10,43,5,0.5,32,4.25,6,L,0.22133108108108107,0.21627272727272726,0.2379,0.2269767441860465
7,1,1,0,5,27.449999999999978,17,123,44,40,37,21,27.693999999999978,0.183,7.075999999999994,5.062999999999996,18,1,15,14,124,1,31,26,5,0.5,36,5.25,6,L,0.22333870967741934,0.183,0.228258064516129,0.1947307692307692
7,1,2,0,9,25.80299999999998,20,118,67,63,9,1,25.92499999999998,2.744999999999998,5.7339999999999955,6.404999999999995,20,11,14,14,120,14,23,21,4,0,20,5,6,L,0.21604166666666666,0.19607142857142856,0.24930434782608693,0.30499999999999994
7,2,3,0,9,18.787999999999986,20,87,66,70,71,68,19.824999999999985,0.6709999999999998,2.0739999999999985,1.463999999999999,20,3,9,4,91,3,10,4,4,1,48,4,6,L,0.21785714285714283,0.22366666666666665,0.20739999999999997,0.366
7,2,4,0,5,9.881999999999993,13,47,40,41,46,99,10.735999999999992,0.366,3.3549999999999973,5.184999999999996,16,2,6,16,50,2,8,31,5,0.5,32,4.25,6,L,0.21472,0.183,0.41937499999999994,0.16725806451612904
7,3,5,0,8,14.700999999999988,18,77,118,111,13,16,16.713999999999988,1.2199999999999993,2.9889999999999977,6.343999999999995,20,4,8,8,84,4,9,16,2,0,16,4,6,L,0.19897619047619047,0.305,0.3321111111111111,0.3964999999999999
7,3,6,0,6,18.360999999999986,20,90,5,2,8,7,18.787999999999986,2.1959999999999984,2.3179999999999983,9.637999999999993,20,5,5,16,93,6,7,36,6,1,72,6,6,L,0.20202150537634406,0.3659999999999999,0.33114285714285707,0.2677222222222222
7,4,7,0,3,24.39999999999998,17,107,112,115,2,33,44.163999999999966,1.9519999999999986,25.92499999999998,0.122,20,5,18,1,183,5,107,1,5,0,15,3.75,6,L,0.24133333333333332,0.39039999999999986,0.2422897196261682,0.122
7,4,8,0,5,35.196999999999974,17,169,47,39,21,16,35.501999999999974,2.8669999999999978,16.713999999999988,2.2569999999999983,19,12,18,8,171,16,56,10,5,0,22,5.5,6,L,0.20761403508771928,0.17918749999999997,0.2984642857142857,0.22569999999999998
7,5,9,0,6,48.92199999999996,14,198,3,10,111,9,48.98299999999996,3.0499999999999976,1.585999999999999,0.427,15,10,7,3,199,11,10,3,6,0.5,38,5,6,L,0.24614572864321604,0.2772727272727272,0.1586,0.14233333333333334
7,5,10,0,10,23.91199999999998,20,108,85,93,91,15,24.64399999999998,0.183,2.3789999999999982,4.086999999999997,20,1,10,13,112,1,15,19,3,0.5,24,3.75,6,L,0.22003571428571425,0.183,0.15860000000000002,0.21510526315789474
7,6,11,1,14,32.57399999999998,17,155,116,50,90,117,36.05099999999997,14.395999999999988,0.366,2.1349999999999985,20,18,2,10,179,61,2,13,3,0,11,2.75,6,L,0.20140223463687149,0.236,0.183,0.16423076923076924
7,6,12,1,1,31.841999999999974,16,146,84,81,74,42,32.14699999999998,0.122,2.3179999999999983,0.6709999999999998,18,2,10,1,148,2,14,2,3,0.5,23,3.5,6,L,0.21720945945945944,0.061,0.16557142857142856,0.33549999999999996
7,7,13,1,3,15.249999999999988,20,82,2,5,8,33,21.654999999999983,9.088999999999993,0.6709999999999998,0.305,20,17,7,2,104,38,8,2,5,0.5,41,5.75,6,L,0.20822115384615383,0.23918421052631578,0.083875,0.1525
7,7,14,1,15,21.349999999999984,18,94,13,18,14,113,43.30999999999997,0.244,0.6709999999999998,0.061,20,3,3,1,193,3,3,1,6,0.5,38,5,6,L,0.2244041450777202,0.08133333333333333,0.22366666666666665,0.061
7,8,15,1,7,29.340999999999976,15,116,4,2,86,5,31.475999999999974,1.463999999999999,4.635999999999997,1.3419999999999992,20,4,11,5,122,4,18,6,6,0.5,39,5.25,6,L,0.25799999999999995,0.3659999999999999,0.25755555555555554,0.22366666666666665
7,8,16,1,15,29.340999999999976,12,112,14,16,18,29,30.011999999999976,2.1959999999999984,0.9759999999999995,4.208999999999997,15,7,4,10,115,8,5,12,6,0.5,41,5.75,6,L,0.2609739130434782,0.27449999999999997,0.19519999999999998,0.35074999999999995
7,9,17,1,2,27.08399999999998,19,109,52,53,51,76,28.608999999999977,1.8299999999999987,2.9279999999999977,0.9759999999999995,20,6,5,1,115,11,5,1,4,0.5,27,3.75,6,L,0.24877391304347823,0.16636363636363635,0.5855999999999997,0.9759999999999995
7,9,18,1,12,24.33899999999998,20,116,39,37,13,40,27.449999999999978,0.8539999999999996,1.524999999999999,0.366,20,2,7,3,125,2,7,3,5,0.5,36,5.25,6,L,0.2196,0.42699999999999994,0.21785714285714283,0.122
7,10,19,1,2,34.037999999999975,18,146,57,73,52,84,34.098999999999975,2.805999999999998,0.061,3.476999999999997,19,7,1,11,147,9,1,12,4,0,14,3.5,6,L,0.2319659863945578,0.3117777777777777,0.061,0.28974999999999995
7,10,20,1,14,10.796999999999992,19,45,96,71,104,99,35.318999999999974,5.672999999999996,6.282999999999995,26.04699999999998,20,12,14,17,148,19,22,113,3,0,11,2.75,6,L,0.23864189189189186,0.298578947368421,0.28559090909090906,0.23050442477876104
7,11,21,1,8,29.950999999999976,18,137,97,16,13,104,30.011999999999976,1.3419999999999992,12.56599999999999,1.8299999999999987,19,3,16,8,138,4,51,8,2,0,16,4,6,L,0.2174782608695652,0.3354999999999999,0.24639215686274504,0.22874999999999998
7,11,22,1,14,36.47799999999997,16,168,96,3,35,87,46.054999999999964,23.301999999999982,1.8299999999999987,0.061,20,19,8,1,211,95,8,1,3,0,17,4.25,6,L,0.21827014218009477,0.24528421052631577,0.22874999999999998,0.061
7,12,23,1,11,19.214999999999986,20,102,64,61,27,30,21.288999999999984,4.208999999999997,12.74899999999999,1.524999999999999,20,14,17,11,115,24,53,12,4,0,18,4.5,6,L,0.18512173913043478,0.175375,0.2405471698113207,0.12708333333333333
7,12,24,1,1,19.092999999999986,20,85,82,14,97,38,22.081999999999983,7.807999999999994,3.903999999999997,0.7929999999999997,20,15,14,5,96,42,20,6,3,0,16,4,6,L,0.23002083333333329,0.1859047619047619,0.19519999999999998,0.13216666666666665
7,13,25,1,11,21.654999999999983,20,88,63,80,65,100,30.37799999999998,0.7319999999999998,4.147999999999997,0.427,20,2,8,4,115,2,16,4,4,0,13,3.25,6,L,0.2641565217391304,0.36599999999999994,0.25925,0.10675
7,13,26,1,3,24.88799999999998,19,101,30,26,15,17,25.13199999999998,0.7929999999999997,9.088999999999993,2.744999999999998,20,4,15,7,103,5,36,13,5,0,22,5.5,6,L,0.24399999999999997,0.1586,0.2524722222222222,0.21115384615384614
7,14,27,1,12,48.49499999999996,17,213,14,79,44,83,53.86299999999996,0.9149999999999996,3.0499999999999976,0.061,20,4,9,1,240,4,10,1,5,0,17,4.25,6,L,0.22442916666666662,0.22875,0.30499999999999994,0.061
7,14,28,1,7,35.074999999999974,12,127,4,106,2,11,37.08799999999997,2.0129999999999986,2.561999999999998,0.427,19,7,10,3,134,11,11,3,6,0.5,38,5,6,L,0.276776119402985,0.183,0.2329090909090909,0.14233333333333334
7,15,29,1,12,29.401999999999976,20,120,45,1,6,55,30.255999999999975,12.62699999999999,3.4159999999999973,0.8539999999999996,20,18,9,3,126,59,14,3,5,0,21,5.25,6,L,0.2401269841269841,0.21401694915254235,0.24399999999999997,0.2846666666666666
7,15,30,1,3,66.00200000000018,19,258,31,28,26,20,66.30700000000019,1.3419999999999992,0.122,4.7579999999999965,20,7,1,12,260,8,1,22,5,0.5,36,5.25,6,L,0.25502692307692304,0.16775,0.122,0.21627272727272726
8,1,1,0,9,27.14499999999998,20,119,70,62,68,69,27.693999999999978,3.9649999999999967,1.2809999999999993,2.9279999999999977,20,10,4,9,123,15,5,14,4,1,48,4,6,L,0.22515447154471543,0.2643333333333333,0.2562,0.20914285714285713
8,1,2,0,10,35.806999999999974,20,156,93,86,34,105,38.18599999999997,4.147999999999997,1.8909999999999987,2.8669999999999978,20,10,7,10,166,14,10,11,3,0,13,3.25,6,L,0.23003614457831323,0.29628571428571426,0.1891,0.26063636363636355
8,2,3,0,1,17.933999999999987,18,69,76,82,79,77,18.787999999999986,2.439999999999998,2.9889999999999977,0.366,20,9,13,1,72,9,17,1,3,1,36,3,6,L,0.2609444444444444,0.2711111111111111,0.1758235294117647,0.366
8,2,4,0,9,19.885999999999985,19,95,65,62,67,31,20.251999999999985,1.8299999999999987,0.8539999999999996,3.598999999999997,20,9,4,10,97,10,4,12,4,0.5,29,4.25,6,L,0.20878350515463917,0.183,0.2135,0.2999166666666666
8,3,5,0,3,14.090999999999989,19,82,31,32,61,2,18.726999999999986,1.2809999999999993,21.898999999999983,2.561999999999998,20,5,18,10,97,6,86,11,5,0,20,5,6,L,0.19306185567010306,0.2135,0.25463953488372093,0.2329090909090909
8,3,6,0,5,18.116999999999987,20,90,46,41,40,56,18.299999999999986,0.8539999999999996,2.561999999999998,2.744999999999998,20,5,6,11,92,5,7,12,5,0.5,34,4.75,6,L,0.19891304347826086,0.1708,0.36599999999999994,0.22875
8,4,7,0,9,17.872999999999987,18,95,72,106,78,108,28.42599999999998,3.842999999999997,4.330999999999997,2.0739999999999985,20,12,12,5,146,19,19,6,4,0,11,2.75,6,L,0.1946986301369863,0.20226315789473684,0.22794736842105262,0.3456666666666666
8,4,8,0,2,14.456999999999988,19,78,15,85,115,23,57.095999999999954,0.122,0.9759999999999995,3.537999999999997,20,1,3,13,257,1,3,18,4,0,17,4.25,6,L,0.2221634241245136,0.122,0.3253333333333333,0.19655555555555554
8,5,9,0,6,13.35899999999999,17,64,4,2,6,120,13.663999999999989,5.367999999999996,0.8539999999999996,15.310999999999988,20,16,6,16,67,30,7,59,6,0.5,38,5,6,L,0.20394029850746268,0.1789333333333333,0.122,0.25950847457627113
8,5,10,0,5,13.724999999999989,19,63,46,47,69,62,25.07099999999998,0.244,0.9149999999999996,2.0739999999999985,20,3,3,8,108,3,3,9,5,0,18,4.5,6,L,0.23213888888888887,0.08133333333333333,0.30499999999999994,0.23044444444444442
8,6,11,1,8,22.996999999999982,20,101,108,102,104,96,26.04699999999998,2.0129999999999986,5.489999999999996,3.903999999999997,20,6,12,10,116,6,21,17,2,0.5,15,2.25,6,L,0.22454310344827585,0.3354999999999999,0.2614285714285714,0.2296470588235294
8,6,12,1,12,27.327999999999978,19,124,47,41,21,15,27.754999999999978,1.7079999999999989,18.116999999999987,0.5489999999999999,20,6,18,2,129,7,66,3,5,0,22,5.5,6,L,0.21515503875968991,0.24399999999999997,0.27449999999999997,0.183
8,7,13,1,1,34.952999999999975,18,158,80,74,73,35,35.196999999999974,3.0499999999999976,0.305,8.783999999999994,20,8,1,16,160,9,1,39,3,0.5,23,3.5,6,L,0.21998124999999996,0.3388888888888888,0.305,0.2252307692307692
8,7,14,1,2,30.438999999999975,20,135,59,56,96,85,32.26899999999998,2.744999999999998,2.622999999999998,0.122,20,9,7,2,143,12,13,2,4,0,14,3.5,6,L,0.22565734265734264,0.22875,0.20176923076923076,0.061
8,8,15,1,14,17.994999999999987,20,86,33,26,69,91,19.702999999999985,10.064999999999992,2.439999999999998,0.7319999999999998,20,18,10,6,91,40,15,7,3,0,17,4.25,6,L,0.2165164835164835,0.251625,0.16266666666666665,0.10457142857142857
8,8,16,1,1,21.044999999999984,19,90,84,83,111,79,21.410999999999984,2.3789999999999982,4.635999999999997,1.4029999999999991,20,9,12,6,94,10,20,7,3,0.5,20,2.75,6,L,0.22777659574468084,0.2379,0.2318,0.20042857142857143
8,9,17,1,15,19.580999999999985,18,81,95,20,22,21,20.739999999999984,1.7079999999999989,0.061,7.807999999999994,20,8,1,12,83,10,1,26,6,0.5,39,5.25,6,L,0.24987951807228914,0.1708,0.061,0.3003076923076922
8,9,18,1,7,17.628999999999987,19,85,8,7,6,11,18.360999999999986,1.463999999999999,0.7929999999999997,0.9759999999999995,20,5,5,4,88,6,5,5,6,1,72,6,6,L,0.20864772727272726,0.24399999999999997,0.1586,0.19519999999999998
8,10,19,1,12,11.77299999999999,20,44,42,90,61,71,21.837999999999983,19.824999999999985,0.7319999999999998,1.0369999999999995,20,19,3,3,86,90,3,3,5,0,16,4,6,L,0.2539302325581395,0.22027777777777777,0.244,0.3456666666666666
8,10,20,1,15,18.299999999999986,15,77,14,15,20,29,18.360999999999986,3.1109999999999975,0.7929999999999997,17.628999999999987,16,7,4,14,78,11,4,86,6,0.5,41,5.75,6,L,0.23539743589743586,0.2828181818181818,0.19824999999999998,0.20498837209302323
8,11,21,1,14,18.848999999999986,19,81,111,115,39,86,27.75499999999998,14.395999999999988,12.74899999999999,0.305,20,18,18,2,117,66,49,2,3,0,12,3,6,L,0.2372222222222222,0.2181212121212121,0.2601836734693877,0.1525
8,11,22,1,2,8.600999999999994,17,44,56,59,55,1,9.210999999999993,3.659999999999997,0.244,25.98599999999998,20,9,1,17,50,12,1,112,4,0.5,30,4.5,6,L,0.18422,0.305,0.244,0.23201785714285714
8,12,23,1,15,19.214999999999986,17,103,13,72,66,26,20.068999999999985,5.428999999999996,14.273999999999988,0.244,20,12,16,2,106,23,55,2,6,0,19,4.75,6,L,0.18933018867924525,0.23604347826086955,0.2595272727272727,0.122
8,12,24,1,7,19.763999999999985,20,92,1,51,96,42,19.824999999999985,5.7949999999999955,0.305,2.9889999999999977,20,13,2,11,93,22,2,15,6,0,18,4.5,6,L,0.21317204301075265,0.26340909090909087,0.1525,0.19926666666666668
8,13,25,1,1,16.774999999999988,19,74,75,78,84,81,17.567999999999987,1.1589999999999994,1.0369999999999995,0.7319999999999998,20,4,4,3,77,5,4,3,3,1,36,3,6,L,0.22815584415584414,0.23179999999999992,0.25925,0.244
8,13,26,1,15,17.140999999999988,20,90,21,95,112,13,19.214999999999986,9.698999999999993,1.8299999999999987,1.7689999999999988,20,15,8,7,102,38,8,9,6,0,17,4.25,6,L,0.18838235294117645,0.2552368421052631,0.22874999999999995,0.19655555555555554
8,14,27,1,3,22.996999999999982,16,118,31,7,86,57,23.42399999999998,63.07399999999995,0.061,1.2199999999999993,19,19,1,5,121,240,1,5,5,0,18,4.5,6,L,0.19358677685950412,0.2628083333333333,0.061,0.244
8,14,28,1,1,12.13899999999999,16,67,80,22,74,13,12.19999999999999,5.855999999999995,1.0979999999999994,0.7319999999999998,17,13,6,1,68,21,7,1,3,0,18,4.5,6,L,0.17941176470588235,0.2788571428571428,0.15685714285714286,0.7319999999999998
8,15,29,1,12,20.739999999999984,14,93,43,48,44,42,22.813999999999982,1.0979999999999994,4.025999999999997,2.1349999999999985,20,4,12,8,101,6,18,10,5,1,60,5,6,L,0.22588118811881186,0.183,0.22366666666666665,0.2135
8,15,30,1,2,36.72199999999997,20,170,59,54,55,23,37.08799999999997,1.0369999999999995,3.4159999999999973,3.2939999999999974,20,6,10,11,174,7,11,16,4,0.5,30,4.5,6,L,0.2131494252873563,0.14814285714285713,0.3105454545454545,0.20587499999999997
8,16,31,1,15,27.266999999999978,12,128,16,15,21,72,29.096999999999976,5.550999999999996,0.366,2.1959999999999984,18,14,2,8,135,22,2,12,6,0.5,40,5.5,6,L,0.21553333333333333,0.2523181818181818,0.183,0.183
8,16,32,1,12,17.872999999999987,19,75,45,40,112,5,20.190999999999985,2.1349999999999985,3.9649999999999967,13.48099999999999,20,8,9,15,87,8,13,47,5,0,18,4.5,6,L,0.2320804597701149,0.266875,0.30499999999999994,0.2868297872340425
9,1,1,0,1,13.724999999999989,20,69,80,11,8,27,18.726999999999986,11.040999999999991,0.122,0.122,20,18,1,2,91,49,1,2,3,0,20,5,6,L,0.20579120879120877,0.2253265306122449,0.122,0.061
9,1,2,0,5,24.88799999999998,20,111,44,39,48,93,25.43699999999998,3.842999999999997,3.598999999999997,4.879999999999996,20,15,8,12,112,21,9,23,5,0.5,33,4.5,6,L,0.2271160714285714,0.183,0.3998888888888888,0.21217391304347824
9,2,3,0,8,19.092999999999986,18,73,111,119,115,76,19.214999999999986,0.9759999999999995,5.489999999999996,2.2569999999999983,19,4,11,10,74,6,19,12,2,0.5,15,2.25,6,L,0.2596621621621621,0.16266666666666665,0.28894736842105256,0.18808333333333332
9,2,4,0,6,10.247999999999992,17,53,1,12,3,8,19.641999999999985,1.0369999999999995,0.488,2.1349999999999985,20,5,5,8,90,6,6,13,6,1,72,6,6,L,0.21824444444444444,0.17283333333333334,0.08133333333333333,0.16423076923076924
9,3,5,0,7,14.822999999999988,19,75,21,13,16,85,15.432999999999987,2.9279999999999977,1.7079999999999989,5.916999999999995,20,8,4,13,79,11,5,21,6,0.5,39,5.25,6,L,0.1953544303797468,0.26618181818181813,0.34159999999999996,0.2817619047619047
9,3,6,0,8,14.944999999999988,20,78,112,73,113,84,20.190999999999985,5.184999999999996,1.585999999999999,1.1589999999999994,20,13,5,4,101,20,5,4,2,0,10,2.5,6,L,0.1999108910891089,0.25925,0.3171999999999999,0.28975
9,4,7,0,3,32.939999999999976,19,148,32,25,93,112,33.976999999999975,0.9759999999999995,3.0499999999999976,0.7319999999999998,20,5,10,1,152,6,13,1,5,0,15,3.75,6,L,0.2235328947368421,0.16266666666666665,0.23461538461538461,0.7319999999999998
9,4,8,0,5,14.456999999999988,20,79,46,47,80,41,14.578999999999988,2.500999999999998,2.1349999999999985,0.5489999999999999,20,7,7,5,81,12,8,5,5,0.5,33,4.5,6,L,0.17998765432098765,0.20841666666666667,0.266875,0.1098
9,5,9,0,3,21.776999999999983,18,102,64,2,4,74,60.20699999999995,9.759999999999993,3.598999999999997,0.6709999999999998,20,17,8,2,253,33,12,3,5,0,19,4.75,6,L,0.23797233201581025,0.2957575757575757,0.2999166666666666,0.22366666666666665
9,5,10,0,7,20.739999999999984,18,83,23,55,17,20,23.118999999999982,14.761999999999988,0.6099999999999999,0.183,20,17,3,1,90,67,3,1,6,0.5,40,5.5,6,L,0.25687777777777776,0.2203283582089552,0.20333333333333334,0.183
9,6,11,1,8,35.928999999999974,17,150,100,9,108,7,36.23399999999997,1.524999999999999,1.2809999999999993,3.2939999999999974,19,3,8,11,153,4,10,15,2,0,16,4,6,L,0.23682352941176468,0.3812499999999999,0.1281,0.2196
9,6,12,1,13,19.458999999999985,20,102,56,49,17,55,30.62199999999998,3.659999999999997,2.0129999999999986,0.6709999999999998,20,13,6,3,143,21,9,3,2,0.5,30,4.5,6,L,0.21413986013986014,0.1742857142857143,0.22366666666666665,0.22366666666666665
9,7,13,1,12,31.231999999999974,18,134,40,47,38,68,32.39099999999998,0.244,1.7079999999999989,0.488,20,3,5,4,138,3,9,4,5,0.5,34,4.75,6,L,0.2347173913043478,0.08133333333333333,0.18977777777777777,0.122
9,7,14,1,2,53.86299999999996,17,258,49,57,58,97,54.28999999999996,0.366,6.221999999999995,4.391999999999997,19,3,12,10,260,3,21,18,4,0.5,26,3.5,6,L,0.2088076923076923,0.122,0.2962857142857142,0.244
9,8,15,1,2,29.523999999999976,20,149,51,56,99,10,31.292999999999974,1.1589999999999994,16.16499999999999,0.7319999999999998,20,5,18,5,154,6,67,6,4,0,16,4,6,L,0.2032012987012987,0.19316666666666665,0.2412686567164179,0.122
9,8,16,1,11,20.312999999999985,20,92,45,88,72,92,31.109999999999978,0.061,0.061,5.184999999999996,20,1,1,14,135,1,1,24,4,0,15,3.75,6,L,0.23044444444444442,0.061,0.061,0.21604166666666663
9,9,17,1,2,18.665999999999986,20,89,57,56,111,14,18.848999999999986,0.8539999999999996,3.659999999999997,16.591999999999988,20,6,10,16,90,7,14,61,4,0,16,4,6,L,0.20943333333333333,0.122,0.2614285714285714,0.27199999999999996
9,9,18,1,14,26.29099999999998,19,109,92,90,85,105,27.998999999999977,0.183,0.5489999999999999,6.038999999999995,20,2,4,13,118,2,4,26,3,0.5,20,2.75,6,L,0.2372796610169491,0.0915,0.13724999999999998,0.23226923076923073
9,10,19,1,1,12.87099999999999,20,60,83,80,79,44,13.54199999999999,0.7319999999999998,7.563999999999994,10.674999999999992,20,6,15,17,66,7,33,42,3,0.5,23,3.5,6,L,0.20518181818181816,0.10457142857142857,0.2292121212121212,0.25416666666666665
9,10,20,1,15,24.27799999999998,20,103,25,96,107,24,38.73499999999997,1.7079999999999989,3.1109999999999975,3.659999999999997,20,7,10,14,169,9,12,20,6,0,16,4,6,L,0.22920118343195264,0.18977777777777777,0.25925,0.183
9,11,21,1,12,20.678999999999984,18,97,3,10,47,37,263.94700000002064,2.3789999999999982,0.061,0.122,20,6,1,2,1121,6,1,2,5,0,22,5.5,6,L,0.2354567350579839,0.39649999999999985,0.061,0.061
9,11,22,1,11,47.64099999999996,18,214,71,13,14,98,48.12899999999996,1.1589999999999994,7.563999999999994,0.427,20,4,18,4,216,4,41,4,4,0,18,4.5,6,L,0.22281944444444443,0.28974999999999995,0.18448780487804878,0.10675
9,12,23,1,12,10.918999999999992,16,43,13,24,46,20,20.556999999999984,0.6099999999999999,5.916999999999995,1.463999999999999,20,4,16,2,82,4,28,2,5,0.5,41,5.75,6,L,0.2506951219512195,0.1525,0.21132142857142855,0.7319999999999998
9,12,24,1,2,11.467999999999991,20,56,59,97,101,2,15.127999999999988,19.336999999999986,7.9299999999999935,278.5260000000142,20,19,13,17,76,81,26,1112,4,0,14,3.5,6,L,0.19905263157894734,0.23872839506172838,0.305,0.2504730215827337
9,13,25,1,13,18.604999999999986,20,103,120,117,14,25,20.129999999999985,2.3179999999999983,10.857999999999992,2.561999999999998,20,10,17,8,110,14,49,11,2,0,15,3.75,6,L,0.183,0.16557142857142856,0.22159183673469388,0.23290909090909087
9,13,26,1,7,12.44399999999999,17,61,4,9,11,47,13.724999999999989,2.1959999999999984,4.6969999999999965,12.44399999999999,20,10,11,15,65,15,17,59,6,0.5,41,5.75,6,L,0.21115384615384614,0.1464,0.2762941176470588,0.21091525423728813
9,14,27,1,15,14.822999999999988,19,87,13,20,19,105,17.140999999999988,2.561999999999998,2.8669999999999978,2.0129999999999986,20,10,9,8,96,14,14,10,6,0.5,38,5,6,L,0.1785520833333333,0.183,0.20478571428571427,0.2013
9,14,28,1,7,20.617999999999984,20,103,5,8,61,1,22.020999999999983,4.391999999999997,2.1959999999999984,0.122,20,10,8,1,109,13,8,1,6,0.5,40,5.5,6,L,0.2020275229357798,0.3378461538461538,0.27449999999999997,0.122
10,1,1,0,5,19.336999999999986,20,94,37,47,40,3,20.434999999999985,3.9649999999999967,2.9279999999999977,19.031999999999986,20,8,11,17,102,12,14,84,5,0.5,36,5.25,6,L,0.20034313725490194,0.33041666666666664,0.20914285714285713,0.22657142857142853
10,1,2,0,9,22.081999999999983,20,110,66,70,63,15,22.325999999999983,0.6099999999999999,2.439999999999998,8.478999999999994,20,4,6,15,112,4,8,30,4,0.5,30,4.5,6,L,0.19933928571428572,0.1525,0.30499999999999994,0.2826333333333333
10,2,3,0,8,30.011999999999976,20,127,111,25,113,112,30.804999999999975,7.197999999999994,1.3419999999999992,5.550999999999996,20,14,7,13,134,31,7,25,2,0.5,17,2.75,6,L,0.2298880597014925,0.23219354838709674,0.1917142857142857,0.22204
10,2,4,0,5,25.86399999999998,18,96,44,37,38,23,26.90099999999998,5.123999999999996,2.1349999999999985,5.062999999999996,20,13,6,15,100,20,7,22,5,0.5,36,5.25,6,L,0.26900999999999997,0.2562,0.30499999999999994,0.23013636363636364
10,3,5,0,5,24.46099999999998,18,110,92,15,42,45,40.13799999999997,1.646999999999999,0.061,1.8909999999999987,20,7,1,9,172,7,1,11,5,0,19,4.75,6,L,0.23336046511627906,0.2352857142857143,0.061,0.1719090909090909
10,3,6,0,6,21.898999999999983,19,98,8,3,9,55,22.630999999999982,11.77299999999999,0.183,1.9519999999999986,20,17,2,5,103,52,2,5,6,0.5,40,5.5,6,L,0.21971844660194173,0.22640384615384612,0.0915,0.39039999999999997
10,4,7,0,5,31.780999999999974,18,145,42,48,46,45,32.51299999999998,0.427,0.9759999999999995,1.0369999999999995,20,2,7,2,149,2,8,3,5,1,60,5,6,L,0.21820805369127513,0.2135,0.122,0.34566666666666657
10,4,8,0,10,16.652999999999988,19,80,90,86,96,95,16.957999999999988,0.061,0.6709999999999998,0.305,20,1,4,3,83,1,6,3,3,1,36,3,6,L,0.2043132530120482,0.061,0.11183333333333333,0.10166666666666667
10,5,9,0,5,19.275999999999986,17,93,48,49,58,95,24.76599999999998,14.578999999999988,4.208999999999997,2.622999999999998,20,19,13,9,108,59,18,11,5,0,16,4,6,L,0.2293148148148148,0.24710169491525422,0.2338333333333333,0.23845454545454545
10,5,10,0,7,16.652999999999988,19,88,16,21,23,24,20.251999999999985,0.244,3.903999999999997,3.1719999999999975,20,1,9,9,100,1,12,12,6,1,72,6,6,L,0.20251999999999998,0.244,0.32533333333333325,0.2643333333333333
10,6,11,1,3,24.82699999999998,20,116,35,33,20,14,28.852999999999977,0.305,0.9149999999999996,3.781999999999997,20,2,3,10,137,2,3,14,5,0,22,5.5,6,L,0.21060583941605837,0.1525,0.305,0.27014285714285713
10,6,12,1,7,9.698999999999993,16,52,4,11,40,72,10.308999999999992,6.221999999999995,1.463999999999999,4.208999999999997,18,13,3,10,54,32,4,17,6,0,21,5.25,6,L,0.1909074074074074,0.19443749999999999,0.36599999999999994,0.2475882352941176
10,7,13,1,7,23.057999999999982,20,98,3,120,62,12,23.118999999999982,5.855999999999995,3.537999999999997,4.269999999999997,20,13,11,10,99,26,15,15,6,0,18,4.5,6,L,0.2335252525252525,0.2252307692307692,0.23586666666666667,0.28466666666666657
10,7,14,1,14,22.569999999999983,20,106,45,40,85,95,29.889999999999976,0.305,1.7689999999999988,2.8669999999999978,20,3,5,7,134,3,6,12,3,0,16,4,6,L,0.2230597014925373,0.10166666666666667,0.2948333333333333,0.23891666666666667
10,8,15,1,1,15.005999999999988,16,61,73,80,17,14,22.752999999999982,4.940999999999996,5.611999999999996,2.9279999999999977,20,15,14,8,100,24,24,12,3,0,18,4.5,6,L,0.22752999999999998,0.20587499999999997,0.2338333333333333,0.244
10,8,16,1,14,27.449999999999978,20,111,89,2,45,91,27.571999999999978,1.8299999999999987,2.439999999999998,0.244,20,4,7,2,113,5,8,2,3,0,17,4.25,6,L,0.24399999999999997,0.36599999999999994,0.305,0.122
10,9,17,1,12,22.508999999999983,19,116,47,5,94,87,31.048999999999978,0.244,0.9759999999999995,0.7319999999999998,20,2,5,3,146,2,5,3,5,0,17,4.25,6,L,0.21266438356164383,0.122,0.19519999999999998,0.244
10,9,18,1,15,31.597999999999974,20,134,22,19,14,24,33.366999999999976,9.088999999999993,10.735999999999992,2.744999999999998,20,17,18,11,144,43,47,14,6,1,72,6,6,L,0.23171527777777776,0.2113720930232558,0.2284255319148936,0.19607142857142856
10,10,19,1,3,40.38199999999997,18,164,3,29,30,28,47.88499999999996,0.122,0.305,0.061,20,1,2,1,194,1,2,1,5,0.5,36,5.25,6,L,0.24682989690721646,0.122,0.1525,0.061
10,10,20,1,15,19.946999999999985,19,92,23,15,19,115,21.166999999999984,4.818999999999996,2.439999999999998,0.9759999999999995,20,13,8,2,104,19,11,3,6,0.5,38,5,6,L,0.20352884615384614,0.25363157894736843,0.2218181818181818,0.3253333333333333
10,11,21,1,14,26.59599999999998,17,109,94,110,90,43,27.266999999999978,7.624999999999994,1.1589999999999994,0.305,20,17,7,3,116,31,8,3,3,0,13,3.25,6,L,0.2350603448275862,0.24596774193548385,0.144875,0.10166666666666667
10,11,22,1,3,25.43699999999998,20,124,15,62,36,22,37.33199999999997,1.4029999999999991,0.9149999999999996,1.1589999999999994,20,3,5,5,173,3,5,7,5,0,21,5.25,6,L,0.21579190751445085,0.46766666666666656,0.183,0.16557142857142856
10,12,23,1,7,12.99299999999999,20,53,3,12,5,4,39.64999999999997,0.122,1.1589999999999994,2.9889999999999977,20,2,6,11,152,2,6,12,6,1,72,6,6,L,0.2608552631578947,0.061,0.19316666666666663,0.24908333333333327
10,12,24,1,13,31.719999999999974,17,151,120,36,18,13,37.08799999999997,3.3549999999999973,6.770999999999995,10.003999999999992,20,15,16,16,173,18,37,46,2,0,19,4.75,6,L,0.21438150289017338,0.18638888888888888,0.183,0.2174782608695652
10,13,25,1,2,36.05099999999997,17,167,54,58,56,117,39.77199999999997,0.061,1.2199999999999993,4.452999999999997,20,1,8,11,181,1,10,23,4,0.5,26,3.5,6,L,0.21973480662983425,0.061,0.122,0.1936086956521739
10,13,26,1,1,25.61999999999998,20,117,77,21,62,37,29.706999999999976,0.7929999999999997,2.744999999999998,0.5489999999999999,20,2,13,3,132,3,17,3,3,0,18,4.5,6,L,0.22505303030303028,0.2643333333333333,0.16147058823529412,0.183
10,14,27,1,7,14.273999999999988,19,61,9,5,10,73,15.127999999999988,3.598999999999997,11.223999999999991,0.8539999999999996,20,14,16,5,66,20,51,6,6,0.5,39,5.25,6,L,0.2292121212121212,0.17995,0.220078431372549,0.14233333333333334
10,14,28,1,3,29.828999999999976,18,137,32,36,13,29,32.87899999999998,3.903999999999997,3.598999999999997,3.781999999999997,20,9,9,12,147,17,14,15,5,0.5,36,5.25,6,L,0.22366666666666665,0.2296470588235294,0.25707142857142856,0.2521333333333333
10,15,29,1,1,36.41699999999997,12,164,75,82,74,39,37.57599999999997,1.7689999999999988,5.367999999999996,3.476999999999997,16,6,11,13,169,6,18,18,3,0.5,23,3.5,6,L,0.22234319526627216,0.2948333333333333,0.29822222222222217,0.19316666666666665
10,15,30,1,15,16.957999999999988,20,80,17,13,21,102,17.018999999999988,3.903999999999997,4.818999999999996,1.3419999999999992,20,10,10,3,81,17,21,3,6,0.5,38,5,6,L,0.21011111111111108,0.22964705882352943,0.22947619047619044,0.44733333333333314
10,16,31,1,15,7.014999999999994,15,35,13,15,17,63,10.308999999999992,1.9519999999999986,0.305,1.463999999999999,20,4,2,5,56,6,2,5,6,0.5,40,5.5,6,L,0.1840892857142857,0.3253333333333333,0.1525,0.2928
10,16,32,1,3,22.508999999999983,20,118,30,27,8,25,22.813999999999982,0.305,7.624999999999994,4.635999999999997,20,3,13,13,120,3,26,18,5,0.5,36,5.25,6,L,0.19011666666666666,0.10166666666666667,0.2932692307692307,0.25755555555555554
11,1,1,0,5,19.885999999999985,17,86,40,86,96,89,21.715999999999983,4.6969999999999965,0.183,2.0739999999999985,20,11,2,6,91,16,2,8,5,0.5,23,3.5,6,L,0.23863736263736263,0.29356249999999995,0.0915,0.2592499999999999
11,1,2,0,9,26.10799999999998,19,121,64,67,101,63,26.65699999999998,2.2569999999999983,0.9759999999999995,1.2199999999999993,20,8,3,5,123,11,3,6,4,0.5,26,3.5,6,L,0.21672357723577235,0.20518181818181816,0.32533333333333325,0.2033333333333333
11,2,3,0,6,21.105999999999984,19,99,2,5,8,12,21.654999999999983,0.6099999999999999,0.8539999999999996,3.659999999999997,20,3,4,11,105,3,4,15,6,1,72,6,6,L,0.20623809523809522,0.20333333333333334,0.2135,0.24399999999999997
11,2,4,0,7,11.83399999999999,14,60,13,14,16,18,13.48099999999999,0.8539999999999996,0.366,0.9759999999999995,20,5,3,3,67,5,3,4,6,1,72,6,6,L,0.2012089552238806,0.1708,0.122,0.24399999999999994
11,3,5,0,6,17.201999999999988,19,90,5,11,59,60,17.262999999999987,2.561999999999998,9.820999999999993,4.7579999999999965,20,9,15,13,91,12,36,18,6,0,20,5,6,L,0.1897032967032967,0.2135,0.2728055555555555,0.2643333333333333
11,3,6,0,7,20.739999999999984,19,100,14,19,97,43,23.72899999999998,1.2199999999999993,1.8299999999999987,6.770999999999995,20,6,5,13,110,6,6,37,6,0,19,4.75,6,L,0.2157181818181818,0.20333333333333334,0.305,0.183
11,4,7,0,3,23.78999999999998,20,119,34,30,36,27,24.15599999999998,0.6709999999999998,3.476999999999997,0.6099999999999999,20,3,9,4,121,6,14,5,5,1,60,5,6,L,0.1996363636363636,0.11183333333333333,0.24835714285714283,0.122
11,4,8,0,9,35.501999999999974,15,158,63,62,19,18,35.806999999999974,9.210999999999993,1.4029999999999991,28.791999999999977,17,18,3,17,160,38,4,137,4,0,20,5,6,L,0.22379374999999999,0.24239473684210525,0.35074999999999995,0.21016058394160583
11,5,9,0,6,27.14499999999998,20,120,5,12,11,70,27.693999999999978,4.025999999999997,2.683999999999998,4.7579999999999965,20,16,9,13,122,19,13,20,6,0.5,40,5.5,6,L,0.22699999999999998,0.21189473684210522,0.20646153846153845,0.23789999999999997
11,5,10,0,7,15.432999999999987,18,84,14,20,85,23,23.057999999999982,1.8299999999999987,0.9149999999999996,1.3419999999999992,20,8,4,7,117,9,4,9,6,0.5,39,5.25,6,L,0.19707692307692307,0.2033333333333333,0.22875,0.1491111111111111
11,6,11,1,2,29.950999999999976,14,141,51,6,97,106,31.475999999999974,12.74899999999999,10.186999999999992,0.183,20,18,17,2,149,58,43,2,4,0,14,3.5,6,L,0.211248322147651,0.21981034482758618,0.236906976744186,0.0915
11,6,12,1,12,33.183999999999976,19,145,91,47,40,19,36.84399999999997,2.0129999999999986,4.147999999999997,0.305,20,9,13,3,158,11,17,3,5,0,19,4.75,6,L,0.2331898734177215,0.183,0.24399999999999997,0.10166666666666667
11,7,13,1,11,23.66799999999998,20,116,15,87,67,63,37.20999999999997,0.244,0.061,0.244,20,1,1,2,188,1,1,2,4,0,17,4.25,6,L,0.19792553191489362,0.244,0.061,0.122
11,7,14,1,1,39.40599999999997,17,177,76,75,6,81,40.13799999999997,3.598999999999997,0.9759999999999995,2.1349999999999985,20,10,4,11,180,16,5,15,3,0.5,24,3.75,6,L,0.22298888888888888,0.22493749999999998,0.19519999999999998,0.14233333333333334
11,8,15,1,2,29.828999999999976,19,128,54,56,89,55,32.51299999999998,2.1959999999999984,0.6099999999999999,0.305,20,6,3,1,140,7,3,1,4,0.5,27,3.75,6,L,0.23223571428571427,0.3137142857142856,0.20333333333333334,0.305
11,8,16,1,7,11.345999999999991,19,52,3,9,6,11,16.22599999999999,0.061,0.6099999999999999,1.0979999999999994,20,1,3,5,75,1,3,5,6,1,72,6,6,L,0.21634666666666666,0.061,0.20333333333333334,0.2196
11,9,17,1,3,14.822999999999988,15,68,25,26,28,33,15.127999999999988,2.805999999999998,1.1589999999999994,3.720999999999997,19,7,5,14,72,8,5,20,5,1,60,5,6,L,0.21011111111111108,0.3507499999999999,0.23179999999999998,0.18605
11,9,18,1,15,15.615999999999987,20,80,13,21,24,15,15.737999999999987,0.122,3.3549999999999973,4.208999999999997,20,2,8,12,81,2,12,20,6,1,72,6,6,L,0.19429629629629627,0.061,0.2795833333333333,0.21045
11,10,19,1,2,62.70799999999995,16,272,52,51,54,42,67.89299999999994,0.061,0.7929999999999997,1.0979999999999994,20,1,4,1,291,1,4,1,4,0.5,29,4.25,6,L,0.23330927835051543,0.061,0.19824999999999998,1.0979999999999994
11,10,20,1,8,19.580999999999985,20,89,104,101,99,63,20.129999999999985,1.4029999999999991,1.646999999999999,2.683999999999998,20,8,9,6,92,8,9,9,2,0.5,16,2.5,6,L,0.21880434782608696,0.175375,0.183,0.29822222222222217
11,11,21,1,2,57.94999999999995,17,241,51,49,53,50,59.04799999999995,0.061,1.1589999999999994,4.025999999999997,20,1,6,9,246,1,6,15,4,1,48,4,6,L,0.24003252032520322,0.061,0.19316666666666665,0.26839999999999997
11,11,22,1,1,15.188999999999988,19,82,81,82,35,15,17.384999999999987,7.380999999999994,27.388999999999978,8.478999999999994,20,16,18,15,97,27,123,33,3,0,17,4.25,6,L,0.17922680412371134,0.2733703703703703,0.22267479674796745,0.2569393939393939
11,12,23,1,7,18.116999999999987,19,83,5,11,8,33,19.153999999999986,2.805999999999998,3.720999999999997,7.990999999999993,20,8,9,15,87,11,13,32,6,0.5,41,5.75,6,L,0.22016091954022987,0.2550909090909091,0.2862307692307692,0.24971875
11,12,24,1,12,57.339999999999954,18,246,13,44,42,17,60.57299999999995,0.5489999999999999,0.6099999999999999,0.9149999999999996,20,2,3,5,261,3,3,5,5,0,22,5.5,6,L,0.2320804597701149,0.183,0.20333333333333334,0.183
11,13,25,1,12,14.395999999999988,20,63,61,48,66,23,21.837999999999983,5.001999999999996,3.9649999999999967,17.018999999999988,20,12,13,17,89,12,17,72,5,0,19,4.75,6,L,0.2453707865168539,0.4168333333333333,0.23323529411764704,0.23637499999999997
11,13,26,1,2,14.334999999999988,16,62,55,51,49,52,14.700999999999988,0.6099999999999999,2.2569999999999983,3.659999999999997,19,4,10,8,65,4,14,11,4,1,48,4,6,L,0.22616923076923073,0.1525,0.1612142857142857,0.33272727272727265
11,14,27,1,12,18.970999999999986,18,77,37,40,48,92,19.336999999999986,8.234999999999994,1.524999999999999,2.561999999999998,20,13,7,8,79,25,7,9,5,0.5,33,4.5,6,L,0.24477215189873416,0.3293999999999999,0.21785714285714283,0.28466666666666657
11,14,28,1,1,23.60699999999998,15,110,14,118,119,32,51.97199999999996,0.122,0.061,0.122,20,1,1,1,236,1,1,1,3,0,15,3.75,6,L,0.22022033898305082,0.122,0.061,0.122
11,15,29,1,2,22.081999999999983,15,103,54,51,49,15,22.325999999999983,6.038999999999995,0.122,4.330999999999997,17,13,1,14,105,20,1,20,4,0.5,30,4.5,6,L,0.21262857142857142,0.30194999999999994,0.122,0.21655
11,15,30,1,7,18.055999999999987,20,88,12,2,4,63,21.410999999999984,7.685999999999994,2.0739999999999985,4.513999999999997,20,17,10,9,99,33,11,18,6,0.5,40,5.5,6,L,0.21627272727272726,0.2329090909090909,0.18854545454545452,0.25077777777777777
11,16,31,1,2,19.275999999999986,19,79,53,51,52,98,20.129999999999985,0.305,6.221999999999995,0.488,20,4,13,3,81,4,25,3,4,0.5,26,3.5,6,L,0.2485185185185185,0.07625,0.24887999999999996,0.16266666666666665
11,16,32,1,15,14.456999999999988,19,78,19,20,31,23,19.580999999999985,0.8539999999999996,0.7319999999999998,1.1589999999999994,20,5,2,5,106,5,2,7,6,0.5,41,5.75,6,L,0.18472641509433962,0.1708,0.366,0.16557142857142856
12,1,1,0,5,25.80299999999998,20,111,42,47,73,62,31.475999999999974,7.990999999999993,1.8299999999999987,3.720999999999997,20,17,5,13,139,34,6,18,5,0,17,4.25,6,L,0.2264460431654676,0.23502941176470585,0.305,0.2067222222222222
12,1,2,0,3,20.800999999999984,20,98,29,32,11,6,28.730999999999977,1.9519999999999986,1.7079999999999989,0.427,20,6,8,2,133,6,8,2,5,0,22,5.5,6,L,0.21602255639097742,0.3253333333333333,0.21349999999999997,0.2135
12,2,3,0,7,33.305999999999976,19,135,22,18,24,23,37.45399999999997,4.391999999999997,0.366,0.9759999999999995,20,6,3,4,147,13,3,4,6,1,72,6,6,L,0.2547891156462585,0.33784615384615374,0.122,0.244
12,2,4,0,6,11.95599999999999,17,54,4,5,1,8,12.56599999999999,3.842999999999997,6.343999999999995,2.744999999999998,19,11,14,11,56,15,23,13,6,1,72,6,6,L,0.22439285714285712,0.2562,0.2758260869565217,0.21115384615384614
12,3,5,0,8,39.28399999999997,15,198,111,23,15,14,41.78499999999997,5.7339999999999955,6.465999999999995,12.99299999999999,20,14,14,16,214,26,28,51,2,0.5,38,5,6,L,0.19525700934579437,0.22053846153846152,0.2309285714285714,0.2547647058823529
12,3,6,0,6,24.82699999999998,15,129,1,6,10,38,25.00999999999998,1.1589999999999994,1.8299999999999987,0.9149999999999996,17,8,10,3,131,8,12,3,6,0.5,41,5.75,6,L,0.19091603053435113,0.144875,0.1525,0.305
12,4,7,0,4,21.471999999999984,20,97,99,15,20,107,21.898999999999983,2.0129999999999986,0.6099999999999999,0.6099999999999999,20,5,2,2,100,7,2,3,2,0,16,4,6,L,0.21898999999999996,0.28757142857142853,0.305,0.20333333333333334
12,4,8,0,8,19.458999999999985,19,85,112,109,86,7,20.251999999999985,12.93199999999999,6.343999999999995,2.2569999999999983,20,16,16,9,90,47,30,13,2,0,13,3.25,6,L,0.2250222222222222,0.27514893617021274,0.21146666666666666,0.17361538461538462
12,5,9,0,7,15.920999999999987,20,80,21,17,23,22,17.079999999999988,3.4159999999999973,0.5489999999999999,4.147999999999997,20,13,2,11,83,15,2,15,6,1,72,6,6,L,0.20578313253012046,0.22773333333333334,0.27449999999999997,0.27653333333333324
12,5,10,0,8,55.570999999999955,16,231,3,49,115,113,86.86399999999993,0.7319999999999998,1.3419999999999992,0.7929999999999997,20,4,5,4,366,4,5,4,2,0,14,3.5,6,L,0.2373333333333333,0.183,0.26839999999999997,0.19824999999999998
12,6,11,1,8,30.194999999999975,20,137,99,106,61,107,32.08599999999998,2.683999999999998,0.305,2.439999999999998,20,9,1,7,148,12,1,10,2,0.5,16,2.5,6,L,0.21679729729729727,0.22366666666666665,0.305,0.244
12,6,12,1,2,21.288999999999984,17,77,50,57,110,44,23.48499999999998,5.367999999999996,0.427,0.244,20,11,2,4,87,19,2,4,4,0,15,3.75,6,L,0.2699425287356321,0.2825263157894736,0.2135,0.061
12,7,13,1,11,19.580999999999985,20,97,46,12,11,2,45.200999999999965,47.03099999999996,22.996999999999982,566.8119999999643,20,19,18,17,199,185,110,2297,4,0.5,41,5.75,6,L,0.22714070351758792,0.2542216216216216,0.20906363636363637,0.24676186329995642
12,7,14,1,1,12.93199999999999,20,76,84,79,75,82,15.493999999999987,0.6709999999999998,0.183,5.001999999999996,20,4,2,10,93,4,2,15,3,1,36,3,6,L,0.16660215053763439,0.16775,0.0915,0.33346666666666663
12,8,15,1,2,33.000999999999976,19,160,15,114,109,95,72.10199999999995,0.244,0.183,0.122,20,1,1,1,331,1,1,1,4,0,13,3.25,6,L,0.21783081570996976,0.244,0.183,0.122
12,8,16,1,8,33.305999999999976,15,152,1,100,102,36,61.54899999999995,4.635999999999997,1.7079999999999989,0.305,20,16,7,2,267,19,8,2,2,0,15,3.75,6,L,0.2305205992509363,0.24399999999999997,0.2135,0.1525
12,9,17,1,7,22.081999999999983,20,104,1,2,117,58,23.301999999999982,2.439999999999998,4.6969999999999965,2.3179999999999983,20,8,11,10,109,11,23,12,6,0,18,4.5,6,L,0.21377981651376146,0.2218181818181818,0.20421739130434782,0.19316666666666663
12,9,18,1,12,48.55599999999996,17,227,43,14,46,47,55.387999999999955,0.427,0.9759999999999995,1.2199999999999993,20,4,3,6,256,4,3,6,5,0.5,36,5.25,6,L,0.216359375,0.10675,0.3253333333333333,0.20333333333333334
12,10,19,1,15,63.62299999999995,16,276,72,22,19,96,64.35499999999995,0.061,1.7689999999999988,0.9759999999999995,19,1,7,3,279,1,7,3,6,0,19,4.75,6,L,0.23066308243727598,0.061,0.25271428571428567,0.3253333333333333
12,10,20,1,1,18.665999999999986,20,90,75,74,80,83,22.142999999999983,0.6099999999999999,0.7929999999999997,2.1349999999999985,20,2,5,7,100,2,5,9,3,1,36,3,6,L,0.22143,0.305,0.1586,0.2372222222222222
12,11,21,1,15,36.90499999999997,16,155,17,16,24,31,38.30799999999997,11.71199999999999,0.061,3.1109999999999975,20,18,1,10,161,48,1,13,6,0.5,41,5.75,6,L,0.23793788819875775,0.244,0.061,0.2393076923076923
12,11,22,1,12,17.140999999999988,20,78,60,89,85,57,25.802999999999983,0.366,2.439999999999998,0.305,20,4,9,1,114,4,15,1,5,0,14,3.5,6,L,0.22634210526315787,0.0915,0.16266666666666665,0.305
12,12,23,1,12,13.602999999999989,17,72,45,41,55,37,13.724999999999989,6.038999999999995,4.940999999999996,2.9889999999999977,18,15,15,10,73,27,21,15,5,0.5,34,4.75,6,L,0.18801369863013698,0.22366666666666665,0.23528571428571426,0.19926666666666665
12,12,24,1,15,17.872999999999987,18,86,14,20,114,23,17.933999999999987,5.7949999999999955,1.2809999999999993,0.6099999999999999,19,12,8,4,87,25,8,4,6,0.5,38,5,6,L,0.20613793103448275,0.23179999999999998,0.160125,0.1525
12,13,25,1,7,12.68799999999999,20,67,3,9,10,12,13.846999999999989,1.8299999999999987,0.488,2.0129999999999986,20,9,3,6,74,12,3,6,6,1,72,6,6,L,0.1871216216216216,0.1525,0.16266666666666665,0.33549999999999996
12,13,26,1,15,15.920999999999987,20,87,19,15,14,99,15.981999999999987,4.208999999999997,1.8909999999999987,0.7319999999999998,20,12,8,3,88,19,10,3,6,0.5,38,5,6,L,0.18161363636363637,0.22152631578947368,0.1891,0.244
13,1,1,0,8,22.874999999999982,20,111,113,120,15,116,23.60699999999998,2.500999999999998,6.038999999999995,1.524999999999999,20,9,11,6,116,10,21,7,2,0.5,18,3,6,L,0.20350862068965517,0.2501,0.28757142857142853,0.21785714285714283
13,1,2,0,9,21.593999999999983,20,95,5,94,12,7,48.86099999999996,0.183,0.061,0.427,20,1,1,3,211,1,1,3,4,0.5,39,5.25,6,L,0.2315687203791469,0.183,0.061,0.14233333333333334
13,2,3,0,7,17.811999999999987,18,87,20,15,23,73,18.482999999999986,12.07799999999999,0.122,7.075999999999994,20,17,1,14,91,47,1,29,6,0.5,39,5.25,6,L,0.2031098901098901,0.25697872340425526,0.122,0.24399999999999997
13,2,4,0,5,20.983999999999984,18,95,43,37,85,48,21.898999999999983,1.7689999999999988,0.9149999999999996,0.366,20,8,5,3,103,8,5,3,5,0.5,33,4.5,6,L,0.21261165048543687,0.2211249999999999,0.183,0.122
13,3,5,0,1,20.434999999999985,20,90,79,54,80,98,23.42399999999998,0.6709999999999998,2.1349999999999985,3.2329999999999974,20,1,9,10,107,1,12,15,3,0,12,3,6,L,0.21891588785046728,0.6709999999999998,0.17791666666666667,0.21553333333333333
13,3,6,0,5,28.791999999999977,20,133,43,37,40,22,30.011999999999976,0.244,1.3419999999999992,6.282999999999995,20,1,5,13,139,1,7,22,5,0.5,36,5.25,6,L,0.21591366906474818,0.244,0.19171428571428573,0.28559090909090906
13,4,7,0,8,42.63899999999997,18,177,110,44,8,114,42.69999999999997,11.77299999999999,7.807999999999994,9.271999999999993,19,14,18,17,178,45,34,36,2,0,15,3.75,6,L,0.2398876404494382,0.2616222222222222,0.2296470588235294,0.25755555555555554
13,4,8,0,3,16.40899999999999,19,77,25,29,78,26,32.45199999999998,0.122,0.7319999999999998,1.1589999999999994,20,2,3,4,152,2,3,5,5,0.5,33,4.5,6,L,0.21349999999999997,0.061,0.24399999999999997,0.2318
13,5,9,0,4,24.88799999999998,19,129,42,39,104,20,30.865999999999975,11.284999999999991,6.709999999999995,3.9649999999999967,20,14,15,11,145,44,29,16,2,0,18,4.5,6,L,0.21286896551724135,0.25647727272727266,0.23137931034482756,0.24781249999999994
13,5,10,0,6,32.08599999999998,20,153,12,7,68,93,32.20799999999998,0.8539999999999996,10.674999999999992,0.9149999999999996,20,5,15,4,154,5,45,4,6,0,19,4.75,6,L,0.20914285714285713,0.17079999999999998,0.2372222222222222,0.22875
13,6,11,1,7,8.295999999999994,14,41,12,3,87,103,8.356999999999994,8.905999999999993,0.7929999999999997,0.5489999999999999,15,17,2,6,42,38,3,6,6,0,17,4.25,6,L,0.19897619047619047,0.23436842105263156,0.2643333333333333,0.0915
13,6,12,1,3,23.42399999999998,19,107,26,33,14,36,30.926999999999975,0.488,0.305,2.0739999999999985,20,3,1,10,138,3,1,12,5,0.5,36,5.25,6,L,0.2241086956521739,0.16266666666666665,0.305,0.1728333333333333
13,7,13,1,15,21.105999999999984,17,89,18,13,20,42,22.020999999999983,2.500999999999998,5.916999999999995,2.622999999999998,20,7,13,8,94,8,28,10,6,0.5,41,5.75,6,L,0.23426595744680848,0.3126249999999999,0.21132142857142858,0.2623
13,7,14,1,3,38.12499999999997,18,159,28,30,26,29,40.07699999999997,0.122,0.6099999999999999,5.367999999999996,20,2,4,14,171,2,4,24,5,1,60,5,6,L,0.23436842105263156,0.061,0.1525,0.22366666666666665
13,8,15,1,3,22.020999999999983,20,112,30,31,29,8,25.25399999999998,1.524999999999999,2.683999999999998,8.722999999999994,20,5,8,14,128,6,11,43,5,0.5,36,5.25,6,L,0.19729687499999998,0.2541666666666666,0.244,0.20286046511627906
13,8,16,1,12,16.530999999999988,19,67,38,41,96,13,17.323999999999987,7.807999999999994,8.905999999999993,6.953999999999994,20,17,18,15,72,32,36,36,5,0,19,4.75,6,L,0.2406111111111111,0.244,0.24738888888888885,0.19316666666666665
13,9,17,1,3,20.739999999999984,20,102,86,91,111,115,25.00999999999998,20.373999999999985,0.183,0.061,20,19,1,1,118,82,1,1,5,0,10,2.5,6,L,0.21194915254237287,0.2484634146341463,0.183,0.061
13,9,18,1,8,14.761999999999988,20,71,108,97,106,1,14.883999999999988,3.659999999999997,0.061,5.916999999999995,20,13,1,13,73,19,1,30,2,0.5,18,3,6,L,0.2038904109589041,0.1926315789473684,0.061,0.19723333333333334
13,10,19,1,1,13.11499999999999,19,65,79,77,73,8,14.334999999999988,3.903999999999997,0.122,5.855999999999995,20,9,1,15,73,16,1,23,3,0.5,24,3.75,6,L,0.1963698630136986,0.24399999999999997,0.122,0.25460869565217387
13,10,20,1,15,19.946999999999985,20,98,20,23,114,68,20.007999999999985,5.7339999999999955,2.9279999999999977,1.2199999999999993,20,12,12,4,99,18,16,4,6,0,18,4.5,6,L,0.2021010101010101,0.31855555555555554,0.183,0.305
13,11,21,1,15,10.735999999999992,17,46,23,18,15,17,15.06699999999999,1.4029999999999991,3.1719999999999975,4.818999999999996,20,8,9,12,64,9,14,23,6,1,72,6,6,L,0.23542187499999997,0.15588888888888888,0.22657142857142856,0.20952173913043476
13,11,22,1,2,28.120999999999977,16,120,49,57,5,1,28.181999999999977,2.561999999999998,3.476999999999997,3.2939999999999974,17,9,8,10,121,10,13,13,4,0,20,5,6,L,0.23290909090909087,0.2562,0.2674615384615384,0.2533846153846154
13,12,23,1,8,23.97299999999998,19,111,108,4,100,6,24.03399999999998,6.526999999999995,1.2199999999999993,1.7689999999999988,20,14,4,6,112,26,4,8,2,0,16,4,6,L,0.2145892857142857,0.2510384615384615,0.30499999999999994,0.22112499999999996
13,12,24,1,15,10.491999999999992,16,58,21,19,13,23,11.101999999999991,2.9889999999999977,0.6709999999999998,0.8539999999999996,20,5,2,4,64,8,2,5,6,1,72,6,6,L,0.17346874999999998,0.37362499999999993,0.3354999999999999,0.1708
13,13,25,1,3,32.26899999999998,12,141,32,25,24,33,33.305999999999976,5.977999999999995,24.82699999999998,1.463999999999999,15,14,18,8,144,29,110,11,5,0.5,36,5.25,6,L,0.23129166666666665,0.20613793103448275,0.22569999999999998,0.1330909090909091
13,13,26,1,1,21.410999999999984,18,90,74,82,1,120,21.532999999999983,0.8539999999999996,14.029999999999989,3.537999999999997,20,6,15,11,92,7,66,13,3,0,14,3.5,6,L,0.23405434782608692,0.122,0.21257575757575756,0.27215384615384614
13,14,27,1,15,9.515999999999993,14,45,20,119,17,23,9.698999999999993,7.624999999999994,0.7929999999999997,0.122,16,14,3,2,47,32,3,2,6,0.5,38,5,6,L,0.20636170212765956,0.23828124999999997,0.2643333333333333,0.061
13,14,28,1,12,18.909999999999986,19,87,46,3,43,48,32.57399999999998,4.086999999999997,0.061,3.4159999999999973,20,11,1,10,148,19,1,12,5,0.5,36,5.25,6,L,0.22009459459459457,0.21510526315789472,0.061,0.2846666666666666
13,15,29,1,14,10.491999999999992,20,71,89,92,118,114,27.81599999999998,3.1109999999999975,10.186999999999992,0.8539999999999996,20,9,17,4,142,13,38,4,3,0,10,2.5,6,L,0.19588732394366198,0.23930769230769228,0.26807894736842103,0.2135
13,15,30,1,11,14.334999999999988,18,76,64,15,65,66,14.395999999999988,14.029999999999989,1.585999999999999,5.184999999999996,19,18,8,16,77,57,10,25,4,0.5,30,4.5,6,L,0.18696103896103894,0.24614035087719296,0.1586,0.20739999999999997
13,16,31,1,11,15.554999999999987,20,66,62,71,106,94,22.874999999999982,3.476999999999997,2.3179999999999983,1.8909999999999987,20,13,8,8,90,18,8,10,4,0,13,3.25,6,L,0.25416666666666665,0.19316666666666665,0.28974999999999995,0.1891
13,16,32,1,12,17.811999999999987,19,85,41,45,46,38,19.946999999999985,1.463999999999999,0.9759999999999995,3.781999999999997,20,6,7,9,91,8,8,18,5,1,60,5,6,L,0.2191978021978022,0.183,0.122,0.2101111111111111
14,1,1,0,2,21.959999999999983,19,111,6,12,83,7,35.806999999999974,0.7929999999999997,1.8299999999999987,0.9759999999999995,20,5,6,4,172,5,7,4,4,0.5,39,5.25,6,L,0.20818023255813953,0.1586,0.2614285714285714,0.244
14,1,2,0,7,25.13199999999998,19,102,18,35,17,98,26.29099999999998,8.478999999999994,1.0979999999999994,2.2569999999999983,20,16,5,8,110,38,5,8,6,0,19,4.75,6,L,0.23900909090909087,0.2231315789473684,0.2196,0.28212499999999996
14,2,3,0,5,13.23699999999999,17,54,47,108,48,56,13.29799999999999,2.805999999999998,3.2329999999999974,9.576999999999993,18,8,10,15,55,11,13,42,5,0,16,4,6,L,0.24178181818181815,0.25509090909090903,0.24869230769230768,0.22802380952380952
14,2,4,0,9,12.56599999999999,18,50,66,82,116,27,17.872999999999987,23.362999999999982,2.3179999999999983,0.122,20,19,10,2,68,102,12,2,4,0,14,3.5,6,L,0.26283823529411765,0.2290490196078431,0.19316666666666665,0.061
14,3,5,0,3,13.907999999999989,16,63,30,33,35,91,16.16499999999999,0.7319999999999998,3.0499999999999976,3.2329999999999974,20,6,7,8,74,7,11,16,5,0.5,33,4.5,6,L,0.21844594594594594,0.10457142857142857,0.2772727272727272,0.20206249999999998
14,3,6,0,6,10.064999999999992,18,56,1,2,12,8,12.38299999999999,0.488,1.4029999999999991,0.427,20,4,5,3,64,5,6,3,6,1,72,6,6,L,0.193484375,0.09759999999999999,0.2338333333333333,0.14233333333333334
14,4,7,0,5,31.475999999999974,15,144,45,38,90,95,31.719999999999974,5.611999999999996,9.332999999999993,4.818999999999996,18,15,17,12,147,24,43,17,5,0,16,4,6,L,0.21578231292517006,0.23383333333333334,0.21704651162790697,0.2834705882352941
14,4,8,0,9,15.188999999999988,20,85,68,67,83,8,18.177999999999987,9.942999999999993,1.463999999999999,0.183,20,18,9,2,102,50,10,2,4,0,17,4.25,6,L,0.1782156862745098,0.19885999999999998,0.1464,0.0915
14,5,9,0,10,25.55899999999998,20,123,88,119,111,23,26.22999999999998,13.23699999999999,0.305,1.4029999999999991,20,16,1,4,128,54,1,4,3,0,13,3.25,6,L,0.20492187499999998,0.2451296296296296,0.305,0.3507499999999999
14,5,10,0,6,35.501999999999974,13,168,12,60,11,9,35.867999999999974,3.781999999999997,1.4029999999999991,0.6099999999999999,17,8,6,2,172,11,7,2,6,0.5,40,5.5,6,L,0.2085348837209302,0.34381818181818175,0.2004285714285714,0.305
14,6,11,1,1,15.249999999999988,20,78,83,79,63,84,16.04299999999999,0.8539999999999996,2.2569999999999983,0.5489999999999999,20,4,6,4,83,4,6,4,3,0.5,22,3.25,6,L,0.193289156626506,0.2135,0.37616666666666665,0.13724999999999998
14,6,12,1,7,24.52199999999998,19,108,6,8,7,11,24.58299999999998,0.305,4.208999999999997,0.5489999999999999,20,1,13,3,109,1,20,3,6,1,72,6,6,L,0.2255321100917431,0.305,0.21044999999999997,0.183
14,7,13,1,11,27.571999999999978,15,150,65,63,46,61,31.963999999999974,0.6709999999999998,2.3789999999999982,0.9759999999999995,20,2,9,4,166,2,12,6,4,0.5,29,4.25,6,L,0.19255421686746985,0.3355,0.19825,0.16266666666666665
14,7,14,1,15,30.377999999999975,20,138,21,16,24,114,30.438999999999975,2.3789999999999982,0.8539999999999996,7.136999999999994,20,7,5,14,139,9,6,28,6,0.5,38,5,6,L,0.21898561151079135,0.2643333333333333,0.14233333333333334,0.2548928571428571
14,8,15,1,7,18.970999999999986,20,84,2,10,7,12,23.057999999999982,0.061,0.9149999999999996,7.319999999999994,20,1,5,12,101,1,5,29,6,1,72,6,6,L,0.22829702970297028,0.061,0.183,0.25241379310344825
14,8,16,1,1,12.87099999999999,14,54,82,78,113,79,13.602999999999989,0.427,4.086999999999997,0.244,16,3,11,2,56,3,19,2,3,0.5,20,2.75,6,L,0.24291071428571426,0.14233333333333334,0.21510526315789472,0.122
14,9,17,1,7,46.725999999999964,16,191,9,109,54,31,47.76299999999996,1.646999999999999,1.8299999999999987,0.9149999999999996,20,8,8,4,197,9,12,4,6,0,17,4.25,6,L,0.24245177664974618,0.183,0.1525,0.22875
14,9,18,1,12,20.190999999999985,16,103,39,103,47,46,21.166999999999984,2.561999999999998,0.7929999999999997,0.061,20,7,5,1,110,10,5,1,5,0.5,32,4.25,6,L,0.1924272727272727,0.2562,0.1586,0.061
14,10,19,1,15,25.13199999999998,20,117,14,66,116,114,25.19299999999998,5.855999999999995,1.0369999999999995,1.524999999999999,20,13,7,4,118,14,7,5,6,0,14,3.5,6,L,0.2135,0.41828571428571415,0.14814285714285713,0.3049999999999999
14,10,20,1,3,32.63499999999998,20,152,34,30,8,4,34.464999999999975,5.062999999999996,1.0369999999999995,0.9149999999999996,20,14,2,3,158,26,3,4,5,0,22,5.5,6,L,0.21813291139240504,0.19473076923076924,0.34566666666666657,0.22875
14,11,21,1,3,25.31499999999998,20,113,29,62,19,26,25.80299999999998,6.770999999999995,4.879999999999996,0.8539999999999996,20,15,13,3,114,33,21,3,5,0,20,5,6,L,0.22634210526315787,0.20518181818181816,0.23238095238095235,0.2846666666666667
14,11,22,1,12,26.71799999999998,20,113,40,39,51,113,27.693999999999978,1.1589999999999994,4.330999999999997,1.0979999999999994,20,7,12,3,119,7,21,3,5,0,16,4,6,L,0.23272268907563023,0.16557142857142856,0.20623809523809522,0.3659999999999999
14,12,23,1,11,26.96199999999998,20,123,65,36,115,1,29.401999999999976,1.2199999999999993,4.6969999999999965,0.6709999999999998,20,5,14,6,135,6,21,6,4,0,17,4.25,6,L,0.2177925925925926,0.20333333333333334,0.22366666666666665,0.11183333333333333
14,12,24,1,1,21.898999999999983,20,105,74,76,75,13,22.020999999999983,0.061,0.6099999999999999,3.1109999999999975,20,1,2,11,107,1,2,17,3,0.5,24,3.75,6,L,0.205803738317757,0.061,0.305,0.183
14,13,25,1,11,31.048999999999975,19,139,62,64,71,120,31.414999999999974,0.6709999999999998,1.8909999999999987,4.7579999999999965,20,2,6,11,143,2,7,22,4,0.5,26,3.5,6,L,0.21968531468531466,0.3355,0.27014285714285713,0.21627272727272726
14,13,26,1,1,33.671999999999976,20,151,76,73,74,56,33.854999999999976,4.513999999999997,3.1719999999999975,1.463999999999999,20,11,10,7,152,20,14,8,3,0.5,22,3.25,6,L,0.2227302631578947,0.22569999999999998,0.22657142857142853,0.183
14,14,27,1,8,17.567999999999987,20,86,101,102,73,98,19.336999999999986,1.0369999999999995,15.371999999999987,0.061,20,5,18,1,92,6,62,1,2,0.5,15,2.25,6,L,0.21018478260869564,0.17283333333333334,0.24793548387096773,0.061
14,14,28,1,14,20.251999999999985,20,95,90,25,22,13,23.48499999999998,5.977999999999995,1.0979999999999994,9.820999999999993,20,14,4,16,109,26,5,42,3,0,20,5,6,L,0.21545871559633026,0.22992307692307692,0.2196,0.2338333333333333
14,15,29,1,8,36.35599999999997,19,160,103,107,97,26,37.20999999999997,0.183,1.646999999999999,9.027999999999993,20,2,7,14,164,2,8,35,2,0.5,17,2.75,6,L,0.226890243902439,0.0915,0.20587499999999997,0.25794285714285714
14,15,30,1,1,22.081999999999983,20,96,11,12,4,6,50.01999999999996,2.500999999999998,5.306999999999996,2.561999999999998,20,11,16,9,213,14,23,12,3,1,72,6,6,L,0.2348356807511737,0.17864285714285713,0.23073913043478259,0.21349999999999997
14,16,31,1,3,21.837999999999983,20,110,105,59,77,97,42.88299999999997,35.379999999999974,0.8539999999999996,2.805999999999998,20,18,5,10,181,137,5,13,5,0,11,2.75,6,L,0.23692265193370157,0.2582481751824817,0.1708,0.21584615384615383
14,16,32,1,15,15.676999999999987,18,78,16,22,21,23,17.201999999999988,1.524999999999999,1.0369999999999995,2.8669999999999978,20,8,5,12,86,10,5,14,6,1,72,6,6,L,0.20002325581395347,0.1525,0.20739999999999997,0.20478571428571427
15,1,1,0,6,29.096999999999976,20,139,9,7,2,5,29.523999999999976,5.184999999999996,1.4029999999999991,0.061,20,12,5,1,141,22,6,1,6,1,72,6,6,L,0.2093900709219858,0.23568181818181816,0.2338333333333333,0.061
15,1,2,0,3,23.91199999999998,15,97,30,18,13,33,23.97299999999998,5.306999999999996,1.1589999999999994,1.8299999999999987,16,13,2,6,98,19,2,7,5,0,22,5.5,6,L,0.24462244897959182,0.2793157894736842,0.5794999999999999,0.2614285714285714
15,2,3,0,8,40.01599999999997,19,176,118,110,112,60,40.99199999999997,2.744999999999998,0.7319999999999998,5.428999999999996,20,8,2,13,182,8,2,31,2,0.5,16,2.5,6,L,0.2252307692307692,0.34312499999999996,0.36599999999999994,0.1751290322580645
15,2,4,0,6,20.739999999999984,20,95,9,5,6,65,21.471999999999984,4.940999999999996,0.366,11.406999999999991,20,16,4,14,100,28,4,42,6,0.5,40,5.5,6,L,0.21471999999999997,0.1764642857142857,0.0915,0.27159523809523806
15,3,5,0,2,12.80999999999999,19,64,89,42,13,97,35.623999999999974,6.282999999999995,0.9759999999999995,0.061,20,17,5,1,153,30,5,1,4,0,16,4,6,L,0.23283660130718953,0.2094333333333333,0.19519999999999998,0.061
15,3,6,0,6,27.876999999999978,16,121,1,5,6,30,27.998999999999977,5.123999999999996,1.1589999999999994,1.7079999999999989,18,10,6,4,123,20,7,4,6,0.5,41,5.75,6,L,0.2276341463414634,0.2562,0.16557142857142856,0.4269999999999999
15,4,7,0,9,20.312999999999985,18,101,68,72,101,71,21.349999999999984,2.439999999999998,3.0499999999999976,0.7929999999999997,20,7,8,4,104,11,9,4,4,0.5,26,3.5,6,L,0.20528846153846153,0.22181818181818178,0.3388888888888888,0.19824999999999998
15,4,8,0,2,23.301999999999982,16,103,53,28,26,5,24.76599999999998,4.391999999999997,11.528999999999991,18.238999999999987,20,14,16,17,107,27,39,77,4,0,20,5,6,L,0.23145794392523364,0.16266666666666665,0.29561538461538456,0.23687012987012984
15,5,9,0,6,11.040999999999991,17,48,4,9,12,73,11.101999999999991,5.184999999999996,5.001999999999996,3.0499999999999976,18,12,15,7,49,22,25,11,6,0.5,39,5.25,6,L,0.22657142857142856,0.23568181818181816,0.20008,0.2772727272727273
15,5,10,0,5,19.214999999999986,19,89,48,42,46,45,20.312999999999985,0.061,0.305,6.8929999999999945,20,1,1,13,94,1,1,27,5,1,60,5,6,L,0.21609574468085105,0.061,0.305,0.2552962962962963
15,6,11,1,2,24.21699999999998,19,114,50,52,54,23,25.31499999999998,2.0129999999999986,0.061,0.7929999999999997,20,6,1,3,119,11,1,4,4,0.5,30,4.5,6,L,0.21273109243697477,0.183,0.061,0.19824999999999998
15,6,12,1,8,15.798999999999987,18,79,1,62,102,4,50.56899999999996,0.183,1.0979999999999994,0.244,20,3,5,2,243,3,5,2,2,0,18,4.5,6,L,0.20810288065843618,0.061,0.2196,0.122
15,7,13,1,3,29.523999999999976,19,136,30,26,29,2,30.072999999999976,2.561999999999998,4.208999999999997,12.44399999999999,20,9,9,16,141,13,11,49,5,0.5,36,5.25,6,L,0.21328368794326238,0.19707692307692307,0.38263636363636355,0.25395918367346937
15,7,14,1,2,17.567999999999987,18,79,58,15,53,46,17.628999999999987,8.539999999999994,0.244,1.0979999999999994,19,15,1,6,80,33,1,7,4,0,19,4.75,6,L,0.2203625,0.25878787878787873,0.244,0.15685714285714286
15,8,15,1,12,23.362999999999982,20,97,79,74,11,38,35.745999999999974,10.552999999999992,0.6099999999999999,1.0369999999999995,20,17,2,2,136,48,2,2,5,0,17,4.25,6,L,0.2628382352941176,0.21985416666666663,0.305,0.5184999999999997
15,8,16,1,3,18.726999999999986,20,109,28,85,91,68,19.336999999999986,8.539999999999994,7.990999999999993,2.439999999999998,20,15,15,12,113,45,33,16,5,0,15,3.75,6,L,0.17112389380530973,0.18977777777777777,0.24215151515151512,0.1525
15,9,17,1,2,20.678999999999984,20,109,49,54,50,115,20.922999999999984,1.8299999999999987,0.244,8.173999999999994,20,3,3,14,111,3,3,38,4,0.5,26,3.5,6,L,0.1884954954954955,0.6099999999999999,0.08133333333333333,0.21510526315789472
15,9,18,1,7,26.65699999999998,18,119,3,43,12,9,26.71799999999998,5.489999999999996,0.061,0.244,19,12,1,2,120,24,1,2,6,0.5,41,5.75,6,L,0.22264999999999996,0.22875,0.061,0.122
15,10,19,1,7,12.07799999999999,18,58,28,83,4,8,13.41999999999999,3.781999999999997,9.210999999999993,3.781999999999997,19,10,13,11,61,18,30,13,6,0,20,5,6,L,0.21999999999999997,0.2101111111111111,0.30703333333333327,0.2909230769230769
15,10,20,1,12,15.127999999999988,20,63,93,17,111,117,24.39999999999998,16.530999999999988,1.0369999999999995,0.488,20,18,4,3,106,73,4,3,5,0,13,3.25,6,L,0.23018867924528302,0.22645205479452055,0.25925,0.16266666666666665
15,11,21,1,7,18.970999999999986,20,87,1,4,3,2,19.214999999999986,1.0369999999999995,5.977999999999995,0.6709999999999998,20,5,10,4,89,5,25,4,6,1,72,6,6,L,0.21589887640449437,0.2074,0.23911999999999997,0.16775
15,11,22,1,15,21.349999999999984,20,106,19,18,15,64,21.654999999999983,7.685999999999994,2.439999999999998,2.744999999999998,20,16,8,12,109,38,10,17,6,0.5,40,5.5,6,L,0.19866972477064218,0.20226315789473684,0.24399999999999997,0.16147058823529412
15,12,23,1,3,22.203999999999983,13,87,27,34,28,9,22.691999999999982,0.6709999999999998,2.8669999999999978,4.635999999999997,16,3,9,12,90,3,11,20,5,0.5,36,5.25,6,L,0.2521333333333333,0.22366666666666665,0.26063636363636355,0.2318
15,12,24,1,15,14.517999999999988,18,73,15,13,18,23,14.578999999999988,3.9649999999999967,0.183,3.1719999999999975,19,9,1,4,74,15,1,8,6,1,72,6,6,L,0.19701351351351348,0.2643333333333333,0.183,0.3964999999999999
15,13,25,1,14,31.841999999999974,20,152,92,90,65,94,33.732999999999976,1.585999999999999,4.208999999999997,1.1589999999999994,20,5,12,3,165,5,19,3,3,0.5,22,3.25,6,L,0.20444242424242423,0.3171999999999999,0.22152631578947368,0.3863333333333332
